"","sid","trial","rt","response","trial_length"
"1",5,1,0.876065447979556,"stream_1",1.24806544797957
"2",5,2,0.972621271277887,"stream_1",1.3446212712779
"3",5,3,0.871373727323146,"stream_1",1.24337372732316
"4",5,4,1.20579270471836,"stream_2",1.57779270471838
"5",5,5,NA,NA,0.578317961169887
"6",5,6,0.966733266218682,"stream_1",1.3387332662187
"7",5,7,1.27133718179203,"stream_1",1.64333718179205
"8",5,8,0.917642490270111,"stream_1",1.28964249027013
"9",5,9,1.0170894482647,"stream_1",1.38908944826471
"10",5,10,1.22051767907152,"stream_1",1.59251767907153
"11",5,11,1.11108742662628,"stream_1",1.4830874266263
"12",5,12,1.11971737302002,"stream_2",1.49171737302004
"13",5,13,0.746198100042704,"stream_2",1.11819810004272
"14",5,14,0.98000394746424,"stream_2",1.35200394746425
"15",5,15,0.920417623706555,"stream_1",1.29241762370657
"16",5,16,1.13210521280263,"stream_2",1.50410521280264
"17",5,17,1.17037194179221,"stream_2",1.54237194179223
"18",5,18,0.91633362647309,"stream_2",1.2883336264731
"19",5,19,0.881552068142184,"stream_1",1.2535520681422
"20",5,20,0.892553709953347,"stream_2",1.26455370995336
"21",5,21,0.924243612230669,"stream_1",1.29624361223068
"22",5,22,1.17148199516697,"stream_2",1.54348199516699
"23",5,23,1.20230684968675,"stream_1",1.57430684968676
"24",5,24,1.21307648897374,"stream_2",1.58507648897375
"25",5,25,1.00095740255739,"stream_1",1.3729574025574
"26",5,26,NA,NA,0.578530116869842
"27",5,27,0.993429639246017,"stream_1",1.36542963924603
"28",5,28,1.32706227180398,"stream_1",1.699062271804
"29",5,29,1.11853340733552,"stream_1",1.49053340733553
"30",5,30,NA,NA,0.578573916757705
"31",5,31,1.06668186978942,"stream_1",1.43868186978943
"32",5,32,1.06952988897439,"stream_1",1.4415298889744
"33",5,33,0.795952375834815,"stream_2",1.16795237583483
"34",5,34,0.910056555234689,"stream_1",1.2820565552347
"35",5,35,1.02372136702189,"stream_2",1.39572136702191
"36",5,36,0.85701489264676,"stream_1",1.22901489264677
"37",5,37,0.969766066174373,"stream_2",1.34176606617439
"38",5,38,1.04931418822008,"stream_2",1.42131418822009
"39",5,39,0.905561249693449,"stream_1",1.27756124969346
"40",5,40,0.959401918023389,"stream_2",1.3314019180234
"41",5,41,0.956318132264016,"stream_1",1.32831813226403
"42",5,42,0.979483481626914,"stream_1",1.35148348162693
"43",5,43,1.01947962176047,"stream_2",1.39147962176048
"44",5,44,0.909987775725597,"stream_2",1.28198777572561
"45",5,45,1.22654255877507,"stream_2",1.59854255877508
"46",5,46,0.908018149577686,"stream_1",1.2800181495777
"47",5,47,0.966022202436136,"stream_2",1.33802220243615
"48",5,48,1.16500850881158,"stream_2",1.5370085088116
"49",5,49,0.915640356393226,"stream_1",1.28764035639324
"50",5,50,1.04024966482876,"stream_2",1.41224966482878
"51",5,51,1.02565814325436,"stream_1",1.39765814325438
"52",5,52,0.960497257374584,"stream_2",1.3324972573746
"53",5,53,1.24552296585472,"stream_1",1.61752296585473
"54",5,54,0.942084880073992,"stream_1",1.31408488007401
"55",5,55,1.00513481673471,"stream_1",1.37713481673472
"56",5,56,0.966066344508647,"stream_2",1.33806634450866
"57",5,57,1.03002033820331,"stream_1",1.40202033820333
"58",5,58,1.05585474315131,"stream_2",1.42785474315133
"59",5,59,1.00126981893601,"stream_1",1.37326981893602
"60",5,60,0.90449670713798,"stream_2",1.27649670713799
"61",5,61,0.934379179723066,"stream_1",1.30637917972308
"62",5,62,0.954676663078601,"stream_2",1.32667666307862
"63",5,63,0.955597829441388,"stream_2",1.3275978294414
"64",5,64,0.904082319149268,"stream_1",1.27608231914928
"65",5,65,1.03946195124382,"stream_2",1.41146195124384
"66",5,66,0.907968532519874,"stream_1",1.27996853251989
"67",5,67,0.888343445859675,"stream_2",1.26034344585969
"68",5,68,0.954027877258625,"stream_1",1.32602787725864
"69",5,69,1.2048167884962,"stream_2",1.57681678849622
"70",5,70,0.916273059441949,"stream_1",1.28827305944196
"71",5,71,1.00868021223806,"stream_2",1.38068021223808
"72",5,72,0.969158342749608,"stream_2",1.34115834274962
"73",5,73,0.984319605035409,"stream_1",1.35631960503542
"74",5,74,0.934108167926126,"stream_1",1.30610816792614
"75",5,75,0.974038608231524,"stream_2",1.34603860823154
"76",5,76,0.933103165841487,"stream_2",1.3051031658415
"77",5,77,0.827924582070693,"stream_1",1.19992458207071
"78",5,78,0.799743119140942,"stream_1",1.17174311914096
"79",5,79,0.914208305416025,"stream_2",1.28620830541604
"80",5,80,0.824476025379511,"stream_1",1.19647602537952
"81",5,81,0.951798873659129,"stream_2",1.32379887365914
"82",5,82,0.93197052815168,"stream_1",1.30397052815169
"83",5,83,0.825055689502108,"stream_1",1.19705568950212
"84",5,84,0.915765596694939,"stream_2",1.28776559669495
"85",5,85,0.934300134615398,"stream_2",1.72983956238386
"86",5,86,0.983583561628905,"stream_2",1.35558356162892
"87",5,87,0.867436528147039,"stream_1",1.23943652814705
"88",5,88,1.27468616217931,"stream_1",1.64668616217932
"89",5,89,0.958203922690075,"stream_2",1.33020392269009
"90",5,90,1.09493313878858,"stream_1",1.46693313878859
"91",5,91,0.967302322557146,"stream_2",1.33930232255716
"92",5,92,1.22874795150011,"stream_2",1.60074795150013
"93",5,93,0.992502313523175,"stream_1",1.36450231352319
"94",5,94,0.957212608070506,"stream_2",1.32921260807052
"95",5,95,1.27545984611089,"stream_1",1.64745984611091
"96",5,96,0.909547381553523,"stream_2",1.28154738155354
"97",5,97,0.960565010323364,"stream_2",1.33256501032338
"98",5,98,0.978538020012195,"stream_1",1.35053802001221
"99",5,99,0.906451961447885,"stream_2",1.2784519614479
"100",5,100,1.10718068206035,"stream_1",1.47918068206036
"101",5,101,1.10112329462692,"stream_1",1.47312329462693
"102",5,102,0.910595156964803,"stream_2",1.28259515696482
"103",5,103,0.83979092945475,"stream_1",1.21179092945476
"104",5,104,1.01341436403465,"stream_1",1.38541436403466
"105",5,105,0.833422152203013,"stream_2",1.20542215220303
"106",5,106,0.998851586138073,"stream_1",1.37085158613809
"107",5,107,0.974815714030512,"stream_1",1.34681571403053
"108",5,108,0.945137869040366,"stream_2",1.31713786904038
"109",5,109,1.18422194497481,"stream_1",1.73482316822356
"110",5,110,0.921590981603288,"stream_2",1.2935909816033
"111",5,111,0.884214964368141,"stream_2",1.25621496436816
"112",5,112,1.04149556628846,"stream_2",1.41349556628847
"113",5,113,0.935408819243378,"stream_1",1.30740881924339
"114",5,114,0.995591916457045,"stream_1",1.36759191645706
"115",5,115,1.06800236793089,"stream_1",1.4400023679309
"116",5,116,1.15070784586015,"stream_1",1.52270784586017
"117",5,117,1.11841740607571,"stream_2",1.49041740607572
"118",5,118,1.17523954636937,"stream_2",1.54723954636938
"119",5,119,1.02528173797901,"stream_1",1.39728173797903
"120",5,120,0.937838002012825,"stream_2",1.30983800201284
"121",5,121,1.07957340826789,"stream_2",1.4515734082679
"122",5,122,1.31211692927201,"stream_1",1.68411692927202
"123",5,123,0.88740140611327,"stream_2",1.25940140611328
"124",5,124,1.1692536759395,"stream_1",1.54125367593952
"125",5,125,0.924822934168617,"stream_2",1.29682293416863
"126",5,126,1.25332482064306,"stream_2",1.62532482064307
"127",5,128,0.969961796917516,"stream_1",1.34196179691753
"128",5,129,1.06359397778971,"stream_1",1.43559397778972
"129",5,130,0.93493010017238,"stream_2",1.30693010017239
"130",5,131,1.34026383135307,"stream_2",1.71226383135308
"131",5,132,0.87246393387278,"stream_1",1.24446393387279
"132",5,133,0.947660468755487,"stream_2",1.3196604687555
"133",5,134,1.13599861209178,"stream_2",1.5079986120918
"134",5,135,0.950663840660411,"stream_2",1.32266384066043
"135",5,136,1.01669524928667,"stream_2",1.38869524928668
"136",5,137,0.962544217696006,"stream_2",1.33454421769602
"137",5,138,0.974999126055366,"stream_1",1.34699912605538
"138",5,139,0.927275385627865,"stream_2",1.29927538562788
"139",5,140,1.05690080762844,"stream_2",1.42890080762845
"140",5,141,1.06476391382085,"stream_2",1.43676391382087
"141",5,142,1.02906016256503,"stream_1",1.40106016256505
"142",5,143,0.905710100869612,"stream_1",1.27771010086963
"143",5,144,0.929238852415722,"stream_2",1.30123885241574
"144",5,145,0.987848233392754,"stream_2",1.35984823339277
"145",5,146,0.944448363013464,"stream_2",1.31644836301348
"146",5,147,1.062845615664,"stream_1",1.43484561566402
"147",5,148,1.00795614536338,"stream_2",1.37995614536339
"148",5,149,1.11951685166451,"stream_1",1.49151685166453
"149",5,150,0.97961556565798,"stream_2",1.35161556565799
"150",5,151,1.10826267613203,"stream_1",1.48026267613204
"151",5,152,0.997175556104025,"stream_2",1.36917555610398
"152",5,153,0.970629745187921,"stream_1",1.34262974518788
"153",5,154,0.881595183656259,"stream_2",1.25359518365622
"154",5,155,1.1075108921417,"stream_1",1.47951089214166
"155",5,156,0.882368867587843,"stream_2",1.2543688675878
"156",5,157,1.3576944752607,"stream_1",1.72969447526066
"157",5,158,0.939113331522435,"stream_2",1.31111333152239
"158",5,159,0.973436359791208,"stream_2",1.34543635979117
"159",5,160,1.11095363166021,"stream_2",1.48295363166017
"160",5,161,1.1089686071158,"stream_2",1.48096860711576
"161",5,162,1.33136184660395,"stream_1",1.70336184660391
"162",5,163,1.08138631294639,"stream_2",1.45338631294635
"163",5,164,0.921237160644864,"stream_2",1.29323716064482
"164",5,165,1.28406447069517,"stream_2",1.65606447069513
"165",5,166,0.92178089517472,"stream_2",1.29378089517468
"166",5,167,0.993428954874048,"stream_1",1.36542895487401
"167",5,168,0.987524182669745,"stream_2",1.3595241826697
"168",5,169,1.27538251193653,"stream_2",1.64738251193648
"169",5,170,1.18334457849812,"stream_2",1.55534457849808
"170",5,171,1.11648097202885,"stream_1",1.73022110045713
"171",5,172,0.764164608186888,"stream_2",1.13616460818685
"172",5,173,0.946952142464738,"stream_2",1.3189521424647
"173",5,174,1.19711622094599,"stream_2",1.56911622094594
"174",5,175,0.986117111315593,"stream_2",1.35811711131555
"175",5,176,0.923708090181549,"stream_2",1.29570809018151
"176",5,177,1.14210048378334,"stream_1",1.5141004837833
"177",5,178,0.956996003945619,"stream_2",1.32899600394558
"178",5,179,0.984734677398023,"stream_2",1.35673467739798
"179",5,180,0.9544234449844,"stream_2",1.32642344498436
"180",5,181,0.974433491583454,"stream_1",1.34643349158341
"181",5,182,0.924756549964854,"stream_2",1.29675654996481
"182",5,183,0.853349389642403,"stream_2",1.22534938964236
"183",5,184,0.866698089435317,"stream_2",1.23869808943527
"184",5,185,0.992207348663555,"stream_1",1.36420734866351
"185",5,186,0.859780787042268,"stream_2",1.23178078704223
"186",5,187,0.919755150422475,"stream_1",1.29175515042243
"187",5,188,1.04709237053828,"stream_1",1.41909237053824
"188",5,189,1.01485086343962,"stream_2",1.38685086343958
"189",5,190,0.940869775409169,"stream_1",1.31286977540913
"190",5,191,0.906878325968478,"stream_2",1.27887832596844
"191",5,192,0.996456964215554,"stream_2",1.36845696421551
"192",5,193,0.984776081976975,"stream_2",1.73502676925909
"193",5,194,0.983766289280879,"stream_2",1.35576628928084
"194",5,195,0.91938114045422,"stream_2",1.29138114045418
"195",5,196,0.914133708735221,"stream_2",1.28613370873518
"196",5,197,0.893033113398246,"stream_1",1.2650331133982
"197",5,198,0.90218215688526,"stream_2",1.27418215688522
"198",5,199,0.792785096541934,"stream_1",1.16478509654189
"199",5,200,0.873274231774644,"stream_1",1.2452742317746
"200",5,201,0.841541213982396,"stream_1",1.21354121398235
"201",5,202,0.927654870580568,"stream_2",1.29965487058053
"202",5,203,1.10578969347659,"stream_2",1.47778969347655
"203",5,204,0.9938228116647,"stream_2",1.36582281166466
"204",5,205,0.923869260076003,"stream_1",1.29586926007596
"205",5,206,1.0241597080734,"stream_1",1.39615970807336
"206",5,207,1.0549411048936,"stream_1",1.42694110489356
"207",5,208,1.01282067026239,"stream_1",1.38482067026234
"208",5,209,0.900948574142944,"stream_2",1.2729485741429
"209",5,210,1.05886461660464,"stream_1",1.43086461660459
"210",5,211,0.951032717831708,"stream_2",1.32303271783167
"211",5,212,0.919320915608637,"stream_2",1.29132091560859
"212",5,213,0.932234354031038,"stream_2",1.304234354031
"213",5,214,0.992832865791911,"stream_1",1.36483286579187
"214",5,215,0.923630413820661,"stream_2",1.29563041382062
"215",5,216,NA,NA,1.73461580313688
"216",5,217,0.989181050252569,"stream_1",1.36118105025253
"217",5,218,0.702114540809248,"stream_2",1.1593634918363
"218",5,219,0.920185278994154,"stream_2",1.29218527899411
"219",5,220,0.848998486850519,"stream_2",1.22099848685048
"220",5,221,0.87846006990128,"stream_1",1.25046006990124
"221",5,222,0.803143085332863,"stream_2",1.17514308533282
"222",5,223,1.03636139833759,"stream_2",1.40836139833755
"223",5,224,0.954183914354303,"stream_2",1.32618391435426
"224",5,225,1.00113978802199,"stream_2",1.37313978802194
"225",5,226,0.781997321363974,"stream_2",1.15399732136393
"226",5,227,0.776526783972599,"stream_2",1.14852678397256
"227",5,228,0.665168994334067,"stream_2",1.03716899433402
"228",5,229,0.731223671649218,"stream_2",1.10322367164918
"229",5,230,0.734240046647187,"stream_2",1.10624004664714
"230",5,231,1.05000164112641,"stream_2",1.42200164112637
"231",5,232,0.865337213273392,"stream_2",1.23733721327335
"232",5,233,0.921456502264277,"stream_2",1.29345650226423
"233",5,234,0.973138999624439,"stream_2",1.3451389996244
"234",5,235,0.96661281653212,"stream_2",1.33861281653208
"235",5,236,0.97930965082594,"stream_2",1.3513096508259
"236",5,237,1.11769128608046,"stream_2",1.48969128608042
"237",5,238,0.953625807987351,"stream_2",1.32562580798731
"238",5,239,1.09068386542219,"stream_2",1.46268386542215
"239",5,240,1.05895495386937,"stream_2",1.43095495386933
"240",5,241,1.08593260429404,"stream_2",1.457932604294
"241",5,242,1.32387240819332,"stream_2",1.69587240819328
"242",5,243,1.09113247207313,"stream_2",1.46313247207308
"243",5,244,0.873470304703346,"stream_2",1.2454703047033
"244",5,245,0.859177512043402,"stream_2",1.23117751204336
"245",5,246,1.07642905547652,"stream_2",1.44842905547648
"246",5,247,1.00295303488781,"stream_2",1.37495303488777
"247",5,248,0.892744307896805,"stream_2",1.73482214166415
"248",5,249,0.884298457902673,"stream_2",1.73525466554383
"249",5,250,0.839640709530045,"stream_2",1.21164070953
"250",5,251,0.994146520201298,"stream_2",1.36614652020126
"251",5,252,1.04687439766565,"stream_2",1.4188743976656
"252",5,253,1.0020120216999,"stream_2",1.37401202169985
"253",5,254,0.909656196896663,"stream_2",1.28165619689662
"254",5,255,0.824944136665522,"stream_2",1.19694413666548
"255",5,256,0.688401754458368,"stream_2",1.74294051906963
"256",5,257,1.31526709923617,"stream_2",1.68726709923612
"257",5,258,0.965065106478846,"stream_2",1.3370651064788
"258",5,259,0.877158734210184,"stream_2",1.24915873421014
"259",5,260,0.98390590141878,"stream_2",1.35590590141874
"260",5,261,1.14459023358393,"stream_2",1.51659023358388
"261",5,262,1.0612790853487,"stream_2",1.43327908534866
"262",5,263,0.852146261509347,"stream_2",1.2241462615093
"263",5,264,0.932187132277591,"stream_2",1.30418713227755
"264",5,265,0.731327696379026,"stream_2",1.10332769637898
"265",5,266,0.68306843390144,"stream_2",1.0550684339014
"266",5,267,0.911780833579883,"stream_2",1.28378083357984
"267",5,268,0.825431410403667,"stream_2",1.19743141040362
"268",5,269,0.774682740312869,"stream_2",1.15937649492753
"269",5,270,0.925387199893862,"stream_2",1.29738719989382
"270",5,271,1.12638248387827,"stream_2",1.49838248387823
"271",5,272,NA,NA,1.73489879146564
"272",5,273,1.14412520197618,"stream_2",1.51612520197614
"273",5,274,0.749676426969359,"stream_2",1.15969815034441
"274",5,275,0.659180728597107,"stream_2",1.03118072859706
"275",5,276,0.799211703329433,"stream_2",1.17121170332939
"276",5,277,0.790140678392504,"stream_2",1.16214067839246
"277",5,278,0.748661159287053,"stream_2",1.73571627528509
"278",5,279,1.0384353914036,"stream_2",1.73472975127879
"279",5,280,1.03400441694464,"stream_2",1.4060044169446
"280",5,281,0.923359402021902,"stream_2",1.29535940202186
"281",5,282,0.803028110630635,"stream_2",1.17502811063059
"282",5,283,0.858763466241157,"stream_2",1.23076346624111
"283",5,284,0.954415574692007,"stream_2",1.32641557469196
"284",5,285,0.989294998395394,"stream_2",1.36129499839535
"285",5,286,0.943269530130578,"stream_2",1.31526953013054
"286",5,287,0.700776248965099,"stream_2",1.07277624896506
"287",5,288,0.713378639752932,"stream_2",1.73499357715718
"288",5,289,0.864876287904167,"stream_2",1.23687628790412
"289",5,290,0.731944658842963,"stream_2",1.10394465884292
"290",5,291,0.669534953336893,"stream_2",1.04153495333685
"291",5,292,0.694431766962566,"stream_2",1.06643176696252
"292",5,293,0.672015464097399,"stream_2",1.04401546409736
"293",5,294,0.666541162653971,"stream_2",1.03854116265393
"294",5,295,0.670178948542684,"stream_2",1.04217894854264
"295",5,296,0.663100476255181,"stream_2",1.03510047625514
"296",5,297,0.905425059420281,"stream_2",1.27742505942024
"297",5,298,0.799174404989003,"stream_2",1.17117440498896
"298",5,299,0.776708142878647,"stream_2",1.1487081428786
"299",5,300,0.717408913687336,"stream_2",1.08940891368729
"300",5,301,0.664257751382479,"stream_2",1.03625775138244
"301",5,302,0.649675126661691,"stream_2",1.16065661505036
"302",5,303,0.63383120208016,"stream_2",1.00583120208012
"303",5,304,0.737945927672058,"stream_2",1.73519580944685
"304",5,305,0.737178403096891,"stream_2",1.10917840309685
"305",5,306,NA,NA,0.57828305813473
"306",5,307,0.975986334434651,"stream_1",1.34798633443461
"307",5,308,0.877090639074936,"stream_2",1.24909063907489
"308",5,309,1.03659305867711,"stream_1",1.40859305867707
"309",5,310,1.14795769204682,"stream_1",1.51995769204677
"310",5,311,0.965355280727067,"stream_2",1.33735528072702
"311",5,312,0.989865423479728,"stream_1",1.36186542347968
"312",5,313,1.0457089100604,"stream_1",1.73464557337138
"313",5,314,NA,NA,0.577545303795887
"314",5,315,1.17911515195499,"stream_1",1.55111515195495
"315",5,316,0.896515888750741,"stream_1",1.2685158887507
"316",5,317,1.19361941594286,"stream_2",1.56561941594282
"317",5,318,1.25960805124157,"stream_1",1.63160805124153
"318",5,319,1.25616360078891,"stream_2",1.62816360078887
"319",5,320,0.799222311115386,"stream_1",1.17122231111534
"320",5,321,1.01732966326779,"stream_1",1.38932966326774
"321",5,322,NA,NA,0.578457573307787
"322",5,323,1.08156527654535,"stream_1",1.45356527654531
"323",5,324,0.957611939849244,"stream_1",1.3296119398492
"324",5,325,0.917242474118552,"stream_1",1.28924247411851
"325",5,326,0.926965706741953,"stream_2",1.29896570674191
"326",5,327,1.21057065640377,"stream_2",1.58257065640373
"327",5,328,0.874375388295789,"stream_1",1.24637538829575
"328",5,329,1.00600123324091,"stream_1",1.37800123324087
"329",5,330,1.08560068327768,"stream_1",1.45760068327763
"330",5,331,1.23515402709143,"stream_1",1.60715402709138
"331",5,332,0.924975891584268,"stream_2",1.73527417018067
"332",5,333,1.0364534465383,"stream_1",1.40845344653826
"333",5,334,0.990863924017845,"stream_2",1.3628639240178
"334",5,335,1.01521529218314,"stream_2",1.3872152921831
"335",5,336,0.917336233251604,"stream_1",1.28933623325156
"336",5,337,0.923296439685487,"stream_2",1.29529643968544
"337",5,338,0.984346637777321,"stream_1",1.35634663777728
"338",5,339,1.03759600763931,"stream_1",1.40959600763927
"339",5,340,0.937124200737685,"stream_1",1.30912420073764
"340",5,341,1.02573239774881,"stream_1",1.73454189082622
"341",5,342,0.999769672821799,"stream_1",1.37176967282176
"342",5,343,0.90969383742447,"stream_2",1.28169383742443
"343",5,344,1.07091061196058,"stream_2",1.44291061196054
"344",5,345,0.92192324480618,"stream_1",1.29392324480614
"345",5,346,0.919823245558632,"stream_2",1.29182324555859
"346",5,347,0.932036227981712,"stream_1",1.30403622798167
"347",5,348,0.96339899985685,"stream_1",1.33539899985681
"348",5,349,0.914030710564816,"stream_2",1.28603071056477
"349",5,350,0.979259349393374,"stream_2",1.35125934939333
"350",5,351,0.944779599655135,"stream_1",1.31677959965509
"351",5,352,0.918158165496948,"stream_2",1.2901581654969
"352",5,353,0.925960020285288,"stream_1",1.29796002028525
"353",5,354,0.827607375079765,"stream_1",1.19960737507972
"354",5,355,1.01833158567149,"stream_2",1.39033158567145
"355",5,356,0.983189704836491,"stream_1",1.35518970483645
"356",5,357,0.862084387324444,"stream_2",1.2340843873244
"357",5,358,1.00843657536859,"stream_1",1.38043657536855
"358",5,359,0.907376549676314,"stream_2",1.27937654967627
"359",5,360,1.06169586864451,"stream_2",1.43369586864446
"360",5,361,0.902181814697883,"stream_2",1.27418181469784
"361",5,362,0.963834261229181,"stream_1",1.33583426122914
"362",5,363,1.03857295042087,"stream_1",1.41057295042083
"363",5,364,0.939189639137453,"stream_2",1.31118963913741
"364",5,365,0.93927997640219,"stream_2",1.31127997640215
"365",5,366,1.01060056351287,"stream_1",1.38260056351282
"366",5,367,0.919336314006955,"stream_2",1.29133631400691
"367",5,368,0.911785966378716,"stream_1",1.28378596637867
"368",5,369,0.91346062766695,"stream_1",1.28546062766691
"369",5,370,1.01519647191833,"stream_1",1.38719647191829
"370",5,371,0.924022559679884,"stream_2",1.29602255967984
"371",5,372,NA,NA,0.582173035558299
"372",5,373,0.890604957189112,"stream_1",1.26260495718907
"373",5,374,0.837860312580574,"stream_2",1.20986031258053
"374",5,375,0.948602166315482,"stream_1",1.32060216631544
"375",5,376,0.878764615987507,"stream_2",1.25076461598746
"376",5,377,0.894502804903254,"stream_2",1.26650280490321
"377",5,378,0.912744088898194,"stream_2",1.28474408889815
"378",5,379,0.928969209364709,"stream_2",1.30096920936467
"379",5,380,0.928660214851675,"stream_2",1.30066021485163
"380",5,381,0.926095526182849,"stream_1",1.73503908797647
"381",5,382,0.943219570883571,"stream_2",1.31521957088353
"382",5,383,1.03155093892599,"stream_2",1.40355093892595
"383",5,384,0.983009372491665,"stream_2",1.35500937249162
"384",5,385,0.927641867490252,"stream_2",1.29964186749021
"385",5,386,0.914278795859332,"stream_2",1.28627879585929
"386",5,387,0.862054959277316,"stream_1",1.23405495927727
"387",5,388,0.835231292828553,"stream_2",1.20723129282851
"388",5,389,0.927256907550486,"stream_1",1.73534021219712
"389",5,390,0.921340843189114,"stream_2",1.29334084318907
"390",5,391,0.864860205133823,"stream_2",1.23686020513378
"391",5,392,0.865261247843932,"stream_1",1.23726124784389
"392",5,393,0.872822203256305,"stream_2",1.24482220325626
"393",5,394,1.01372643822776,"stream_1",1.38572643822772
"394",5,395,0.838700380716887,"stream_2",1.21070038071684
"395",5,396,0.894303652294525,"stream_1",1.26630365229448
"396",5,397,0.821011043731573,"stream_2",1.19301104373153
"397",5,398,1.01523582338029,"stream_1",1.38723582338025
"398",5,399,0.989254620374936,"stream_2",1.36125462037489
"399",5,400,0.849114145926592,"stream_1",1.22111414592655
"400",5,401,0.945053006759167,"stream_2",1.31705300675912
"401",5,402,0.945712058176809,"stream_1",1.31771205817677
"402",5,403,0.928941834434568,"stream_2",1.30094183443452
"403",5,404,0.933958632375266,"stream_1",1.30595863237522
"404",5,405,0.861526965331336,"stream_1",1.23352696533129
"405",5,406,0.901578881884575,"stream_2",1.27357888188453
"406",5,407,1.06500002258451,"stream_2",1.43700002258447
"407",5,408,0.899136353837434,"stream_1",1.27113635383739
"408",5,409,1.26990239332224,"stream_1",1.73562183178001
"409",5,410,0.801037611099105,"stream_1",1.17303761109906
"410",5,411,0.886147634361237,"stream_1",1.25814763436119
"411",5,412,0.886910026136661,"stream_2",1.25891002613662
"412",5,413,0.970023732695495,"stream_2",1.34202373269545
"413",5,414,0.953910165063803,"stream_2",1.32591016506376
"414",5,415,1.301814716899,"stream_1",1.67381471689896
"415",5,416,0.961806121171662,"stream_2",1.33380612117162
"416",5,417,1.06919591483927,"stream_2",1.44119591483923
"417",5,418,0.997035601779658,"stream_2",1.36903560177961
"418",5,419,0.930973738545958,"stream_2",1.30297373854592
"419",5,420,1.00717048489912,"stream_2",1.37917048489908
"420",5,421,0.797544227962476,"stream_1",1.16954422796243
"421",5,422,0.896263355030328,"stream_2",1.26826335503029
"422",5,423,0.883742404654527,"stream_1",1.25574240465448
"423",5,424,0.823379317282502,"stream_2",1.19537931728246
"424",5,425,0.871677589035585,"stream_2",1.24367758903554
"425",5,426,0.884217017487003,"stream_1",1.72993742775543
"426",5,427,0.936302952864253,"stream_2",1.30830295286432
"427",5,428,0.917109363526151,"stream_2",1.28910936352622
"428",5,429,0.841812225780131,"stream_2",1.2138122257802
"429",5,430,0.943209989659636,"stream_2",1.31520998965971
"430",5,431,0.843021513271424,"stream_1",1.21502151327149
"431",5,432,0.802060406887222,"stream_2",1.73642905000179
"432",5,433,0.905727210201121,"stream_2",1.27772721020119
"433",5,434,1.04246327003079,"stream_2",1.41446327003086
"434",5,435,1.057537959103,"stream_2",1.42953795910307
"435",5,436,0.947102362386659,"stream_2",1.31910236238673
"436",5,437,0.990668877648432,"stream_2",1.3626688776485
"437",5,438,0.734826554502661,"stream_2",1.10682655450273
"438",5,439,0.652513906806462,"stream_2",1.02451390680653
"439",5,440,0.693417525840459,"stream_2",1.06541752584053
"440",5,441,0.710377663153167,"stream_2",1.08237766315324
"441",5,442,0.710150109054894,"stream_2",1.73527177487449
"442",5,443,0.858635146261122,"stream_2",1.23063514626119
"443",5,444,0.975261925373388,"stream_2",1.34726192537346
"444",5,445,0.845386022772118,"stream_2",1.21738602277219
"445",5,446,0.806259378821096,"stream_2",1.17825937882117
"446",5,447,0.635997243344036,"stream_2",1.00799724334411
"447",5,448,0.596262191595315,"stream_2",0.968262191595386
"448",5,449,0.709486609210444,"stream_2",1.16016044445951
"449",5,450,0.589533776214239,"stream_2",0.96153377621431
"450",5,451,1.11811833497563,"stream_2",1.4901183349757
"451",5,452,0.69669635797095,"stream_2",1.06869635797102
"452",5,453,0.667757978251984,"stream_2",1.03975797825206
"453",5,454,0.788964583001189,"stream_2",1.16096458300126
"454",5,455,0.730132438538249,"stream_2",1.10213243853832
"455",5,456,0.800905184879639,"stream_2",1.17290518487971
"456",5,457,0.854590500488712,"stream_2",1.22659050048878
"457",5,458,1.07219552269385,"stream_2",1.44419552269392
"458",5,459,0.943056005683729,"stream_2",1.3150560056838
"459",5,460,0.773476874687049,"stream_2",1.14547687468712
"460",5,461,1.05802489065377,"stream_2",1.43002489065384
"461",5,462,0.962401525878931,"stream_2",1.334401525879
"462",5,463,0.971264843541803,"stream_2",1.34326484354187
"463",5,464,1.05439497505836,"stream_2",1.42639497505843
"464",5,465,0.960756634827931,"stream_2",1.332756634828
"465",5,466,0.65590634489331,"stream_2",1.02790634489338
"466",5,467,0.645783438303852,"stream_2",1.01778343830392
"467",5,468,0.964749268234527,"stream_2",1.3367492682346
"468",5,469,1.07172056767399,"stream_2",1.44372056767406
"469",5,470,0.848740820331159,"stream_2",1.22074082033123
"470",5,471,0.97789642011162,"stream_2",1.34989642011169
"471",5,472,1.00178652072123,"stream_2",1.3737865207213
"472",5,473,1.17642659173111,"stream_2",1.54842659173119
"473",5,474,NA,NA,0.578221464545095
"474",5,475,1.03471513854151,"stream_2",1.73619225686525
"475",5,476,NA,NA,0.577427249414541
"476",5,477,0.889178723384475,"stream_2",1.26117872338455
"477",5,478,0.744632596286692,"stream_2",1.11663259628676
"478",5,479,0.769381585295605,"stream_2",1.14138158529568
"479",5,480,0.983899742059521,"stream_2",1.35589974205959
"480",5,481,1.20006313206181,"stream_1",1.57206313206188
"481",5,482,0.903611470369697,"stream_2",1.27561147036977
"482",5,483,0.99238733882089,"stream_2",1.7348604665649
"483",5,484,1.03944963252547,"stream_2",1.41144963252555
"484",5,485,0.870233561526447,"stream_2",1.24223356152652
"485",5,486,0.953687743766068,"stream_2",1.32568774376614
"486",5,487,1.0411540640473,"stream_2",1.41315406404738
"487",5,488,0.981411361006622,"stream_1",1.73546716343026
"488",5,489,0.851206959254569,"stream_1",1.22320695925464
"489",5,490,0.917825902294908,"stream_1",1.28982590229498
"490",5,491,0.857196935923866,"stream_1",1.22919693592394
"491",5,492,0.839115795264888,"stream_1",1.21111579526496
"492",5,493,0.953475930250761,"stream_1",1.73601466201126
"493",5,494,0.872321584241263,"stream_1",1.24432158424133
"494",5,495,0.85550584968064,"stream_1",1.22750584968071
"495",5,496,0.796698684840749,"stream_2",1.16869868484082
"496",5,497,0.871718993616241,"stream_2",1.24371899361631
"497",5,498,0.836404992913458,"stream_2",1.20840499291353
"498",5,499,0.877023228310691,"stream_1",1.24902322831076
"499",5,500,1.08944412332153,"stream_1",1.4614441233216
"500",5,501,1.04791327622502,"stream_1",1.73633392212287
"501",5,502,0.892868863823651,"stream_1",1.26486886382372
"502",5,503,0.78630066021401,"stream_2",1.15830066021408
"503",5,504,0.900584829772242,"stream_2",1.27258482977231
"504",5,505,0.823986698521594,"stream_1",1.73649919825675
"505",5,506,0.816918491833576,"stream_2",1.18891849183365
"506",5,507,0.947741224794527,"stream_2",1.3197412247946
"507",5,508,1.00601834257145,"stream_1",1.37801834257152
"508",5,509,0.954748864453222,"stream_1",1.32674886445329
"509",5,510,0.867281175424296,"stream_1",1.23928117542437
"510",5,512,1.11388514437954,"stream_2",1.73618233345223
"511",5,513,0.95283741003027,"stream_2",1.32483741003034
"512",5,514,0.894649945146966,"stream_1",1.26664994514704
"513",5,515,0.807412205522496,"stream_2",1.17941220552257
"514",5,516,0.782607782282184,"stream_2",1.15460778228226
"515",5,517,0.935863243066933,"stream_1",1.307863243067
"516",5,518,0.881471654287679,"stream_2",1.25347165428775
"517",5,519,0.897431580129023,"stream_2",1.73548393057536
"518",5,520,0.948719878509337,"stream_1",1.32071987850941
"519",5,521,1.20974769759619,"stream_1",1.58174769759626
"520",5,523,0.91367175680648,"stream_2",1.28567175680655
"521",5,524,0.969723635035052,"stream_2",1.34172363503512
"522",5,525,0.932489625243988,"stream_1",1.30448962524406
"523",5,526,0.865028903134998,"stream_2",1.23702890313507
"524",5,527,0.800214310107776,"stream_2",1.17221431010785
"525",5,528,0.925189073844422,"stream_2",1.29718907384449
"526",5,529,0.910075033312069,"stream_1",1.28207503331214
"527",5,530,0.887671049164283,"stream_2",1.25967104916435
"528",5,531,1.02095136638513,"stream_1",1.73629114879532
"529",5,532,0.935061499830454,"stream_2",1.30706149983052
"530",5,533,NA,NA,1.73616556630896
"531",5,534,0.992615235106541,"stream_2",1.36461523510661
"532",5,535,1.10976692848476,"stream_2",1.73454702362687
"533",5,536,NA,NA,0.577350599613965
"534",5,537,0.807760551495676,"stream_2",1.17976055149575
"535",5,538,0.763712237481968,"stream_2",1.13571223748204
"536",5,539,0.632542185107241,"stream_2",1.00454218510731
"537",5,540,1.04278663638092,"stream_2",1.7356851363038
"538",5,541,0.934503393463501,"stream_2",1.30650339346357
"539",5,542,0.826333414317787,"stream_2",1.19833341431786
"540",5,543,1.20611470232075,"stream_2",1.57811470232082
"541",5,544,0.96972534596739,"stream_2",1.34172534596746
"542",5,545,0.864417415655453,"stream_2",1.23641741565552
"543",5,546,0.907489129073156,"stream_2",1.27948912907323
"544",5,547,1.14393289309851,"stream_2",1.51593289309858
"545",5,548,0.905170814767416,"stream_2",1.27717081476749
"546",5,549,0.705516560119804,"stream_2",1.07751656011988
"547",5,550,0.775397568148264,"stream_2",1.14739756814834
"548",5,551,0.583362440639803,"stream_2",0.955362440639874
"549",5,552,0.83431594363833,"stream_2",1.2063159436384
"550",5,553,0.801616248663095,"stream_1",1.17361624866317
"551",5,554,0.818791621355786,"stream_1",1.19079162135586
"552",5,555,0.862951830390784,"stream_1",1.73554039136616
"553",5,556,0.9037644277862,"stream_1",1.27576442778627
"554",5,557,0.889928112067764,"stream_1",1.26192811206784
"555",5,558,0.814146095890692,"stream_1",1.18614609589076
"556",5,559,0.877636426722574,"stream_1",1.24963642672265
"557",5,560,0.909655512522704,"stream_1",1.28165551252278
"558",5,561,1.04574483965393,"stream_2",1.735349109048
"559",5,562,0.948125500362266,"stream_2",1.32012550036234
"560",5,563,0.992459540196478,"stream_1",1.73633802836139
"561",5,564,0.890098863187859,"stream_1",1.26209886318793
"562",5,565,0.92868108823609,"stream_2",1.30068108823616
"563",5,566,0.886833034148594,"stream_1",1.25883303414867
"564",5,567,1.11625444449078,"stream_2",1.48825444449085
"565",5,568,1.03240024610045,"stream_1",1.40440024610052
"566",5,569,0.879547538959969,"stream_2",1.25154753896004
"567",5,570,0.666501469008153,"stream_2",1.03850146900822
"568",5,571,0.715346897154859,"stream_2",1.08734689715493
"569",5,572,0.749858812435605,"stream_2",1.12185881243568
"570",5,573,0.657784607214353,"stream_2",1.02978460721442
"571",5,574,0.567739568611842,"stream_2",0.939739568611913
"572",5,575,0.738593002556854,"stream_1",1.16090298941072
"573",5,576,0.903420530238918,"stream_2",1.27542053023899
"574",5,577,0.866638206777907,"stream_1",1.23863820677798
"575",5,578,0.993846764728232,"stream_2",1.3658467647283
"576",5,579,0.878407373164237,"stream_1",1.25040737316431
"577",5,580,0.929935544360205,"stream_1",1.30193554436028
"578",5,581,0.896125453824652,"stream_1",1.26812545382472
"579",5,582,0.855706028848772,"stream_1",1.22770602884884
"580",5,583,0.993163760248763,"stream_1",1.36516376024883
"581",5,584,0.845673801714156,"stream_1",1.21767380171423
"582",5,585,0.775201153033095,"stream_2",1.14720115303317
"583",5,586,1.06659221689665,"stream_1",1.43859221689672
"584",5,587,0.82964646510959,"stream_1",1.20164646510966
"585",5,588,0.757752031048085,"stream_2",1.12975203104816
"586",5,589,0.761752534747075,"stream_2",1.13375253474715
"587",5,590,0.724800828911839,"stream_2",1.09680082891191
"588",5,591,0.867864945787233,"stream_2",1.2398649457873
"589",5,592,1.044080443967,"stream_2",1.41608044396708
"590",5,593,0.883553517644259,"stream_1",1.25555351764433
"591",5,594,0.925879606430726,"stream_2",1.2978796064308
"592",5,595,0.894365930257891,"stream_2",1.26636593025796
"593",5,596,0.961251094482805,"stream_2",1.33325109448288
"594",5,597,1.04970222783982,"stream_2",1.72970850491129
"595",5,598,0.862047773358654,"stream_1",1.23404777335872
"596",5,599,1.18363543711916,"stream_2",1.55563543711924
"597",5,600,0.865507964393373,"stream_2",1.23750796439344
"598",5,601,0.907395712127482,"stream_1",1.73612039767522
"599",5,602,NA,NA,0.577425538481293
"600",5,603,0.94984053966914,"stream_1",1.32184053966921
"601",5,604,0.87040191733945,"stream_1",1.24240191733952
"602",5,605,0.884478105873541,"stream_2",1.73565639262779
"603",5,606,0.90808419159498,"stream_2",1.28008419159505
"604",5,607,0.77150827509945,"stream_2",1.14350827509952
"605",5,608,0.76357638939794,"stream_2",1.16604263234694
"606",5,609,0.975891890929461,"stream_1",1.34789189092953
"607",5,610,0.898547792862018,"stream_2",1.27054779286209
"608",5,611,0.971718925177129,"stream_2",1.3437189251772
"609",5,612,0.766885333949404,"stream_2",1.13888533394947
"610",5,613,0.758467543257439,"stream_2",1.13046754325751
"611",5,614,0.639583359054313,"stream_2",1.01158335905438
"612",5,615,-0.060261151347504,"stream_2",0.580431647882506
"613",5,616,0.634948783559821,"stream_2",1.00694878355989
"614",5,617,0.717368877854142,"stream_2",1.08936887785421
"615",5,618,0.666464170666814,"stream_2",1.03846417066688
"616",5,619,0.734896018384688,"stream_2",1.10689601838476
"617",5,620,0.78536888606618,"stream_2",1.15736888606625
"618",5,621,0.969855376881469,"stream_1",1.34185537688154
"619",5,622,0.821153051174633,"stream_1",1.1931530511747
"620",5,623,0.81784136912961,"stream_1",1.18984136912968
"621",5,624,0.839849101177833,"stream_1",1.73549043211915
"622",5,625,0.903451669220203,"stream_1",1.27545166922027
"623",5,626,0.828258214018433,"stream_2",1.2002582140185
"624",5,627,0.815746844869182,"stream_2",1.18774684486925
"625",5,628,0.725716862477611,"stream_2",1.73508459879667
"626",5,629,0.725886929223861,"stream_2",1.16029355505179
"627",5,630,0.73363095447553,"stream_2",1.73647045458165
"628",5,631,0.714056169248806,"stream_2",1.08605616924888
"629",5,632,0.881261893892997,"stream_2",1.25326189389307
"630",5,633,0.923510648505953,"stream_1",1.29551064850602
"631",5,634,0.788263100443373,"stream_1",1.16026310044344
"632",5,635,0.78953261277843,"stream_1",1.1615326127785
"633",5,636,0.79023341096422,"stream_1",1.16223341096429
"634",5,637,0.68507227871055,"stream_2",1.05707227871062
"635",5,638,0.772501985024292,"stream_2",1.14450198502436
"636",5,639,0.799027949118909,"stream_2",1.17102794911898
"637",5,640,0.667242303025205,"stream_2",1.03924230302528
"638",5,641,0.699275418476873,"stream_2",1.07127541847694
"639",5,642,0.750511362306725,"stream_1",1.1225113623068
"640",5,643,0.791962822109099,"stream_1",1.16396282210917
"641",5,644,0.782595463563894,"stream_1",1.73578608135449
"642",5,645,0.831498721248181,"stream_1",1.20349872124825
"643",5,646,0.820399556252823,"stream_1",1.19239955625289
"644",5,647,0.819984483890266,"stream_1",1.19198448389034
"645",5,648,0.799137791020485,"stream_2",1.17113779102056
"646",5,649,0.825992596451442,"stream_2",1.19799259645151
"647",5,650,0.753086658759685,"stream_2",1.12508665875976
"648",5,651,0.79024299218986,"stream_2",1.16224299218993
"649",5,652,0.784395365151113,"stream_2",1.15639536515118
"650",5,653,0.616664384052683,"stream_2",0.988664384052754
"651",5,654,0.784349854330912,"stream_2",1.15634985433098
"652",5,655,0.748875710293987,"stream_2",1.12087571029406
"653",5,656,0.694431766963362,"stream_2",1.06643176696343
"654",5,657,0.883478578776021,"stream_2",1.25547857877609
"655",5,658,0.550966949563417,"stream_2",0.922966949563488
"656",5,659,0.723804381494347,"stream_2",1.09580438149442
"657",5,660,0.740884626307206,"stream_1",1.11288462630728
"658",5,661,0.744260639437243,"stream_1",1.11626063943731
"659",5,662,0.793365102850885,"stream_1",1.16536510285096
"660",5,663,0.848564936411321,"stream_1",1.22056493641139
"661",5,664,0.944784048081829,"stream_2",1.3167840480819
"662",5,665,1.27821513272397,"stream_2",1.73543773538131
"663",5,666,0.956107003122497,"stream_2",1.32810700312257
"664",5,667,0.903417108372423,"stream_1",1.27541710837249
"665",5,668,0.842498994314383,"stream_2",1.7356861628632
"666",5,669,0.833410517857601,"stream_1",1.20541051785767
"667",5,670,0.924686743895336,"stream_2",1.29668674389541
"668",5,671,0.829597532424714,"stream_2",1.20159753242478
"669",5,672,1.01755276894005,"stream_1",1.38955276894012
"670",5,673,0.825983015225802,"stream_2",1.19798301522587
"671",5,674,NA,NA,0.578354232950915
"672",5,675,0.95812898382178,"stream_1",1.33012898382185
"673",5,676,0.96464661225059,"stream_2",1.33664661225066
"674",5,677,0.946777969478944,"stream_1",1.31877796947902
"675",5,678,0.782137275688228,"stream_2",1.1541372756883
"676",5,679,0.782220427034417,"stream_2",1.15422042703449
"677",5,680,0.807935066668733,"stream_2",1.1799350666688
"678",5,681,0.82215155171366,"stream_2",1.73560164276932
"679",5,682,0.716837804229954,"stream_2",1.72901523483324
"680",5,683,1.08527800130128,"stream_2",1.45727800130135
"681",5,684,0.856725402770508,"stream_2",1.22872540277058
"682",5,685,0.749211395361499,"stream_2",1.12121139536157
"683",5,686,0.782754238152165,"stream_1",1.15475423815224
"684",5,687,0.868227663597509,"stream_2",1.24022766359758
"685",5,688,0.884109570891496,"stream_2",1.25610957089157
"686",5,689,0.898841731162292,"stream_2",1.27084173116236
"687",5,690,0.737553097437967,"stream_2",1.10955309743804
"688",5,691,0.919526569764685,"stream_2",1.29152656976476
"689",5,692,0.855325175148437,"stream_2",1.22732517514851
"690",5,693,0.974222704628346,"stream_2",1.34622270462842
"691",5,694,0.944491478526515,"stream_2",1.31649147852659
"692",5,695,0.825670598847182,"stream_1",1.19767059884725
"693",5,696,0.754833863609065,"stream_2",1.12683386360914
"694",5,697,0.842330296313094,"stream_2",1.21433029631316
"695",5,698,0.951368745085574,"stream_2",1.32336874508565
"696",5,699,0.815856686770758,"stream_2",1.18785668677083
"697",5,700,0.909758510694019,"stream_2",1.28175851069409
"698",5,701,0.852774858318526,"stream_2",1.2247748583186
"699",5,702,0.887484899646779,"stream_1",1.25948489964685
"700",5,703,0.884931503136841,"stream_2",1.25693150313691
"701",5,704,1.01333668767461,"stream_1",1.38533668767468
"702",5,705,0.771019974801902,"stream_2",1.16062205420076
"703",5,706,0.989416474643122,"stream_2",1.36141647464319
"704",5,707,0.823175031874825,"stream_1",1.73584425307854
"705",5,708,0.82104560457924,"stream_2",1.19304560457931
"706",5,709,0.829446285941458,"stream_2",1.20144628594153
"707",5,710,0.943218544323145,"stream_1",1.31521854432322
"708",5,711,0.80147595215044,"stream_2",1.17347595215051
"709",5,712,0.996020334098148,"stream_1",1.36802033409822
"710",5,713,0.821131151231612,"stream_2",1.73546305719083
"711",5,714,0.897291967989304,"stream_2",1.26929196798937
"712",5,715,0.962580489477887,"stream_2",1.33458048947796
"713",5,716,1.04334987554671,"stream_1",1.41534987554678
"714",5,717,0.869667242681544,"stream_1",1.24166724268161
"715",5,718,0.860316651278708,"stream_2",1.23231665127878
"716",5,719,0.832364453380478,"stream_2",1.20436445338055
"717",5,720,0.96759249680531,"stream_1",1.33959249680538
"718",5,721,0.8525876822398,"stream_2",1.22458768223987
"719",5,722,0.941171241816164,"stream_2",1.31317124181624
"720",5,723,0.895633389474142,"stream_2",1.26763338947421
"721",5,724,1.0061254469822,"stream_2",1.37812544698227
"722",5,725,0.92760012072381,"stream_1",1.73621997398004
"723",5,726,1.00432657195347,"stream_2",1.37632657195354
"724",5,727,0.794185324163891,"stream_2",1.16618532416396
"725",5,728,0.825403693288763,"stream_2",1.73663401978229
"726",5,729,0.737316646488807,"stream_2",1.10931664648888
"727",5,730,0.851601842606442,"stream_2",1.22360184260651
"728",5,731,0.962952788512894,"stream_1",1.33495278851296
"729",5,732,0.998527193228483,"stream_1",1.37052719322855
"730",5,733,0.80648830166615,"stream_2",1.17848830166622
"731",5,734,0.870094633761482,"stream_2",1.24209463376155
"732",5,735,0.850253627349275,"stream_2",1.73497988969211
"733",5,736,0.954782056555132,"stream_1",1.3267820565552
"734",5,737,0.805187308160612,"stream_2",1.73657550587086
"735",5,738,0.99719506074166,"stream_1",1.36919506074173
"736",5,739,0.952928089483294,"stream_2",1.32492808948336
"737",5,740,0.937435248368502,"stream_2",1.30943524836857
"738",5,741,0.961311319328388,"stream_2",1.33331131932846
"739",5,742,0.89478613542019,"stream_2",1.26678613542026
"740",5,743,0.830346578920626,"stream_1",1.2023465789207
"741",5,744,0.752715728471458,"stream_2",1.12471572847153
"742",5,745,0.971420538451866,"stream_2",1.34342053845194
"743",5,746,0.793694286372784,"stream_2",1.16569428637285
"744",5,747,0.795581103360064,"stream_2",1.16758110336013
"745",5,748,1.00304405652719,"stream_2",1.73681777399452
"746",5,749,0.879559515490882,"stream_2",1.25155951549095
"747",5,750,1.12687933884104,"stream_1",1.49887933884111
"748",5,751,0.822867063922104,"stream_2",1.19486706392217
"749",5,752,0.917099782300511,"stream_2",1.73682427554013
"750",5,753,0.867854338002189,"stream_2",1.23985433800226
"751",5,754,0.901195632877943,"stream_2",1.27319563287801
"752",5,755,1.20724323377294,"stream_2",1.73664257444761
"753",5,756,0.77229496212226,"stream_2",1.14429496212233
"754",5,757,1.03278520604022,"stream_1",1.40478520604029
"755",5,758,0.92196020095912,"stream_1",1.29396020095919
"756",5,759,0.859189488575112,"stream_2",1.23118948857518
"757",5,760,0.809979289498415,"stream_2",1.18197928949849
"758",5,761,0.951036481883648,"stream_2",1.73549624929274
"759",5,762,0.78926160098149,"stream_2",1.16126160098156
"760",5,763,0.906773274677334,"stream_2",1.27877327467741
"761",5,764,0.884129417714803,"stream_2",1.25612941771487
"762",5,765,0.86562738752059,"stream_1",1.23762738752066
"763",5,766,0.926953045837081,"stream_2",1.29895304583715
"764",5,767,0.815836155573606,"stream_2",1.72998841356002
"765",5,768,1.00085611531927,"stream_2",1.37285611531934
"766",5,769,0.790736083099773,"stream_2",1.16273608309984
"767",5,770,1.01905770566668,"stream_2",1.39105770566675
"768",5,771,0.998537458826149,"stream_2",1.37053745882622
"769",5,772,1.00100462430896,"stream_2",1.37300462430903
"770",5,773,0.861032847860997,"stream_2",1.23303284786107
"771",5,774,0.782065416499108,"stream_2",1.15406541649918
"772",5,775,0.784453194688695,"stream_2",1.15645319468877
"773",5,776,0.711385402729547,"stream_2",1.08338540272962
"774",5,777,0.865695482657657,"stream_2",1.23769548265773
"775",5,778,0.692444347111859,"stream_2",1.06444434711193
"776",5,779,0.72381772677204,"stream_2",1.09581772677211
"777",5,780,0.785007879189152,"stream_2",1.15700787918922
"778",5,781,0.713274272835633,"stream_2",1.0852742728357
"779",5,782,0.733341464600244,"stream_2",1.16272787062189
"780",5,783,0.685541416556816,"stream_2",1.05754141655689
"781",5,784,0.713611326649925,"stream_2",1.08561132665
"782",5,785,0.756377809608466,"stream_2",1.15966085200398
"783",5,786,0.718640785495381,"stream_2",1.09064078549545
"784",5,787,0.890920111059359,"stream_2",1.26292011105943
"785",5,788,1.15623895028079,"stream_2",1.52823895028087
"786",5,789,1.04534448131676,"stream_2",1.41734448131683
"787",5,790,0.850316589686599,"stream_2",1.7375572392657
"788",5,791,0.975128130409075,"stream_2",1.34712813040915
"789",5,792,0.953975864893664,"stream_2",1.32597586489373
"790",5,793,1.01345713736305,"stream_2",1.38545713736312
"791",5,794,0.902961657990318,"stream_2",1.27496165799039
"792",5,795,1.0715176510123,"stream_2",1.44351765101237
"793",5,796,0.92658827490618,"stream_1",1.73550788363627
"794",5,797,0.918001444026459,"stream_1",1.29000144402653
"795",5,798,0.955757972777292,"stream_1",1.32775797277736
"796",5,799,0.931618760311949,"stream_1",1.30361876031202
"797",5,800,0.890717194397666,"stream_1",1.26271719439774
"798",5,801,0.819590284910419,"stream_1",1.19159028491049
"799",5,802,0.877148468611495,"stream_1",1.24914846861157
"800",5,803,0.998120675531254,"stream_1",1.37012067553133
"801",5,804,0.953654893849716,"stream_2",1.32565489384979
"802",5,805,0.937321300225676,"stream_2",1.30932130022575
"803",5,806,0.837664581837316,"stream_2",1.20966458183739
"804",5,807,0.786667826451094,"stream_2",1.15866782645116
"805",5,808,0.807060095498173,"stream_2",1.17906009549824
"806",5,809,0.830226129233097,"stream_1",1.20222612923317
"807",5,810,1.00022922944413,"stream_1",1.73450938309907
"808",5,811,0.962005273780278,"stream_2",1.33400527378035
"809",5,812,0.900284389926355,"stream_2",1.27228438992643
"810",5,813,0.782424028069954,"stream_2",1.15442402807003
"811",5,814,0.802078542776371,"stream_2",1.17407854277644
"812",5,815,0.747120977340501,"stream_2",1.11912097734057
"813",5,816,0.584334934993649,"stream_2",0.95633493499372
"814",5,817,0.881776200373906,"stream_2",1.25377620037398
"815",5,818,0.851263077859812,"stream_1",1.22326307785988
"816",5,819,0.694409182646496,"stream_2",1.06640918264657
"817",5,820,0.660805088451752,"stream_2",1.03280508845182
"818",5,821,0.578532134402167,"stream_2",0.950532134402238
"819",5,822,0.840369224830511,"stream_2",1.21236922483058
"820",5,823,0.919734961411677,"stream_2",1.29173496141175
"821",5,824,0.981807270918807,"stream_2",1.7353381590774
"822",5,825,0.766181798271873,"stream_2",1.13818179827194
"823",5,826,0.856762701111847,"stream_2",1.22876270111192
"824",5,827,0.717196073614332,"stream_2",1.0891960736144
"825",5,828,0.707936846039274,"stream_2",1.07993684603935
"826",5,829,0.730764115027569,"stream_2",1.10276411502764
"827",5,830,0.649217965344405,"stream_2",1.02121796534448
"828",5,831,0.689275356882945,"stream_2",1.06127535688302
"829",5,832,0.793802417342931,"stream_2",1.165802417343
"830",5,833,0.807222634138498,"stream_2",1.17922263413857
"831",5,834,0.691234375246722,"stream_2",1.16249689465712
"832",5,835,0.905672802529125,"stream_2",1.73564441609687
"833",5,836,0.844200688342653,"stream_2",1.21620068834272
"834",5,837,0.815283182007306,"stream_1",1.18728318200738
"835",5,838,0.798963275848337,"stream_1",1.17096327584841
"836",5,839,0.719967442997813,"stream_2",1.09196744299788
"837",5,840,0.862161037126725,"stream_2",1.2341610371268
"838",5,841,0.899160306900058,"stream_2",1.27116030690013
"839",5,842,0.863336448144082,"stream_1",1.23533644814415
"840",5,843,0.944923318033261,"stream_2",1.73708331080616
"841",5,844,0.939169107939279,"stream_1",1.31116910793935
"842",5,845,0.782913012741346,"stream_2",1.15491301274142
"843",5,846,0.920654074655658,"stream_2",1.29265407465573
"844",5,847,0.947746015407802,"stream_1",1.31974601540787
"845",5,848,0.871380228867793,"stream_1",1.24338022886786
"846",5,849,0.82128479302105,"stream_2",1.19328479302112
"847",5,850,0.897150644919066,"stream_1",1.26915064491914
"848",5,851,0.884009994585767,"stream_2",1.25600999458584
"849",5,852,0.865777607445352,"stream_2",1.72990218253562
"850",5,853,1.3081725441773,"stream_2",1.68017254417737
"851",5,854,0.785498232606415,"stream_2",1.15749823260649
"852",5,855,0.646036656399019,"stream_2",1.01803665639909
"853",5,856,0.743511250753954,"stream_2",1.11551125075403
"854",5,857,0.700603444723356,"stream_2",1.07260344472343
"855",5,858,1.01748193631124,"stream_1",1.38948193631131
"856",5,859,0.764966351421435,"stream_2",1.13696635142151
"857",5,860,0.905794620963434,"stream_2",1.73702548126857
"858",5,861,0.831433021419116,"stream_2",1.20343302141919
"859",5,862,0.824454809808458,"stream_2",1.73609336493246
"860",5,863,0.690977735285969,"stream_2",1.16204965675297
"861",5,864,0.888621985764303,"stream_2",1.26062198576437
"862",5,865,0.898116637729117,"stream_2",1.27011663772919
"863",5,866,0.817300372093314,"stream_2",1.18930037209338
"864",5,867,0.722652239165882,"stream_2",1.16074832106005
"865",5,868,0.79689338902358,"stream_2",1.16889338902365
"866",5,869,0.661551397455924,"stream_2",1.03355139745599
"867",5,870,0.882266895976727,"stream_1",1.2542668959768
"868",5,871,0.866000028743883,"stream_1",1.23800002874395
"869",5,872,0.863490432119079,"stream_2",1.23549043211915
"870",5,873,0.987957733109624,"stream_1",1.3599577331097
"871",5,874,0.923313206828652,"stream_1",1.29531320682872
"872",5,875,0.845951315057619,"stream_2",1.21795131505769
"873",5,876,0.808128059918317,"stream_2",1.18012805991839
"874",5,877,0.79905395530136,"stream_1",1.73738375065295
"875",5,878,1.01891946227465,"stream_2",1.39091946227472
"876",5,879,0.888045059132537,"stream_2",1.73466131395526
"877",5,880,0.771599981111876,"stream_2",1.14359998111195
"878",5,881,0.758955159182051,"stream_2",1.736278145705
"879",5,882,0.738492057506164,"stream_2",1.16763448447182
"880",5,883,0.775873207541053,"stream_2",1.14787320754112
"881",5,884,0.770092649079061,"stream_2",1.14209264907913
"882",5,885,0.712697004019219,"stream_2",1.08469700401929
"883",5,886,0.850520875094162,"stream_2",1.22252087509423
"884",5,887,0.922696586552092,"stream_2",1.73664189007559
"885",5,888,0.71733329044514,"stream_2",1.08933329044521
"886",5,889,0.78333150696858,"stream_2",1.15533150696865
"887",5,890,0.713762230947623,"stream_2",1.08576223094769
"888",5,891,0.662096842918118,"stream_2",1.03409684291819
"889",5,892,0.642729080593426,"stream_2",1.16386324580526
"890",5,893,0.743371980802522,"stream_2",1.11537198080259
"891",5,894,0.659741914643064,"stream_2",1.03174191464313
"892",5,895,0.68221912672584,"stream_2",1.73807667854453
"893",5,896,0.574975104555278,"stream_2",0.946975104555349
"894",5,897,0.731933708871338,"stream_2",1.73602219011809
"895",5,898,0.970973984920647,"stream_2",1.34297398492072
"896",5,899,1.06821897205759,"stream_2",1.44021897205766
"897",5,900,0.935588809402589,"stream_1",1.30758880940266
"898",5,901,0.847274208504359,"stream_1",1.21927420850443
"899",5,902,0.933369729213382,"stream_1",1.30536972921345
"900",5,903,0.97718569851645,"stream_2",1.34918569851652
"901",5,904,1.13637022675289,"stream_2",1.50837022675296
"902",5,905,0.842798407599957,"stream_1",1.21479840760003
"903",5,906,0.752371830924176,"stream_2",1.12437183092425
"904",5,907,1.03940925450593,"stream_1",1.411409254506
"905",5,908,0.887750778645795,"stream_2",1.73461169689745
"906",5,909,0.8240465811798,"stream_1",1.73460382660505
"907",5,910,0.792673543705178,"stream_2",1.73509281127554
"908",5,911,1.02896948311377,"stream_1",1.40096948311384
"909",5,912,0.981004158935548,"stream_1",1.35300415893562
"910",5,913,0.912836137096065,"stream_1",1.28483613709614
"911",5,914,0.983600670959504,"stream_1",1.35560067095957
"912",5,915,0.806871550673577,"stream_2",1.17887155067365
"913",5,916,1.07928015434049,"stream_2",1.45128015434057
"914",5,917,0.963439035689817,"stream_2",1.33543903568989
"915",5,918,0.937934156452002,"stream_2",1.30993415645207
"916",5,919,0.840065363119038,"stream_2",1.21206536311911
"917",5,920,0.837416154356333,"stream_2",1.2094161543564
"918",5,921,0.835916692615911,"stream_2",1.20791669261598
"919",5,922,0.6592128941395,"stream_2",1.03121289413957
"920",5,923,0.626550155319137,"stream_2",0.998550155319208
"921",5,924,0.683646387090675,"stream_2",1.16236036219743
"922",5,925,0.71522234122699,"stream_2",1.08722234122706
"923",5,926,0.721812513216037,"stream_2",1.09381251321611
"924",5,927,0.720631627214289,"stream_2",1.73623503019189
"925",5,928,0.828107309721645,"stream_1",1.20010730972172
"926",5,929,0.73468557361798,"stream_2",1.10668557361805
"927",5,930,0.846547061951469,"stream_1",1.21854706195154
"928",5,931,0.713038506259409,"stream_2",1.08503850625948
"929",5,932,0.981681004056782,"stream_1",1.35368100405685
"930",5,933,1.16823088015121,"stream_1",1.73686636449202
"931",5,934,0.854301352799894,"stream_2",1.22630135279996
"932",5,935,1.0061730109212,"stream_2",1.37817301092127
"933",5,936,1.02626655105382,"stream_2",1.39826655105389
"934",5,937,0.884123942728593,"stream_1",1.72997746358851
"935",5,938,1.13021908018823,"stream_2",1.5022190801883
"936",5,939,0.906485837922673,"stream_2",1.27848583792274
"937",5,940,0.880552198857231,"stream_1",1.2525521988573
"938",5,941,1.14527186931832,"stream_2",1.51727186931839
"939",5,942,0.990570670090392,"stream_2",1.36257067009046
"940",5,943,0.75605375888631,"stream_2",1.12805375888638
"941",5,944,0.925363246831012,"stream_2",1.29736324683108
"942",5,945,0.805187308161521,"stream_2",1.17718730816159
"943",5,946,0.861657338430859,"stream_1",1.23365733843093
"944",5,947,1.10119857568156,"stream_1",1.47319857568164
"945",5,948,0.828505957127391,"stream_2",1.73498023187949
"946",5,949,0.872571038282558,"stream_1",1.24457103828263
"947",5,950,0.966882459582166,"stream_1",1.33888245958224
"948",5,951,0.936022702029049,"stream_1",1.30802270202912
"949",5,952,1.11756399266073,"stream_1",1.48956399266081
"950",5,953,0.84103819966117,"stream_2",1.21303819966124
"951",5,954,0.912193852823521,"stream_2",1.28419385282359
"952",5,955,0.943946033064321,"stream_2",1.31594603306439
"953",5,956,0.867148407019386,"stream_2",1.73523276560081
"954",5,957,0.878800203395485,"stream_2",1.25080020339556
"955",5,958,0.835800006980435,"stream_1",1.20780000698051
"956",5,959,0.84986456116917,"stream_1",1.73698441887427
"957",5,960,NA,NA,0.577365998011373
"958",5,961,0.841225717924544,"stream_2",1.21322571792462
"959",5,962,0.953112870254017,"stream_1",1.32511287025409
"960",5,963,1.02270952120602,"stream_2",1.3947095212061
"961",5,964,0.994385024270969,"stream_1",1.36638502427104
"962",5,965,0.971384266669929,"stream_2",1.34338426667
"963",5,966,1.05402404476922,"stream_2",1.42602404476929
"964",5,967,1.04042931279969,"stream_2",1.41242931279976
"965",5,968,1.02308729522724,"stream_1",1.39508729522731
"966",5,969,1.01880756725154,"stream_1",1.39080756725161
"967",5,970,0.832159141411921,"stream_2",1.73487997120083
"968",5,971,1.3568687789616,"stream_2",1.72886877896144
"969",5,972,0.85247818252401,"stream_2",1.22447818252385
"970",5,973,0.909330093054905,"stream_2",1.28133009305475
"971",5,974,1.17976599089388,"stream_1",1.55176599089373
"972",5,975,1.06480566058735,"stream_1",1.4368056605872
"973",5,976,0.852031628992791,"stream_2",1.22403162899263
"974",5,977,0.907081242630284,"stream_2",1.27908124263013
"975",5,978,1.03166762456158,"stream_2",1.40366762456142
"976",5,979,1.12738782814768,"stream_2",1.49938782814752
"977",5,980,0.96183041642098,"stream_1",1.33383041642082
"978",5,981,0.826742327321426,"stream_2",1.19874232732127
"979",5,982,0.901933045029637,"stream_1",1.27393304502948
"980",5,983,0.833309914993606,"stream_2",1.20530991499345
"981",5,984,1.10004198492925,"stream_1",1.47204198492909
"982",5,985,0.868925382101679,"stream_2",1.24092538210152
"983",5,986,0.915263266746024,"stream_2",1.28726326674587
"984",5,987,0.888127868293395,"stream_2",1.26012786829324
"985",5,988,0.78755956476607,"stream_2",1.15955956476591
"986",5,989,0.808499674579707,"stream_2",1.18049967457955
"987",5,990,0.770765730148469,"stream_2",1.14276573014831
"988",5,991,0.745582506326627,"stream_2",1.11758250632647
"989",5,992,0.83507594010689,"stream_2",1.20707594010673
"990",5,993,0.712340103381848,"stream_2",1.15986924365188
"991",5,994,0.711187276680448,"stream_2",1.08318727668029
"992",5,995,0.619837480520346,"stream_2",0.991837480520189
"993",5,996,0.646298771344391,"stream_2",1.73704087966416
"994",5,997,0.670328826279274,"stream_2",1.04232882627912
"995",5,998,0.661083286168378,"stream_2",1.03308328616822
"996",5,999,0.701740530840198,"stream_2",1.07374053084004
"997",5,1000,0.718427945422718,"stream_2",1.09042794542256
"998",5,1001,0.922492301142938,"stream_1",1.29449230114278
"999",5,1002,1.09930628371012,"stream_2",1.47130628370996
"1000",5,1003,0.791917653474684,"stream_1",1.16391765347453
"1001",5,1004,0.8029630951728,"stream_1",1.17496309517264
"1002",5,1005,0.732972245244582,"stream_2",1.10497224524443
"1003",5,1006,0.872580961693984,"stream_2",1.24458096169383
"1004",5,1007,0.924248060657646,"stream_2",1.29624806065749
"1005",5,1008,0.883550437965368,"stream_1",1.73628019882472
"1006",5,1009,0.818356359983682,"stream_2",1.19035635998353
"1007",5,1010,NA,NA,0.586952698175992
"1008",5,1011,0.903587517305368,"stream_1",1.27558751730521
"1009",5,1012,0.847560276513377,"stream_2",1.21956027651322
"1010",5,1013,0.858815136420617,"stream_2",1.735526703902
"1011",5,1014,1.02313828103206,"stream_2",1.3951382810319
"1012",5,1015,0.842511997404927,"stream_2",1.21451199740477
"1013",5,1016,1.04001321387886,"stream_2",1.41201321387871
"1014",5,1017,0.887766519229899,"stream_2",1.25976651922974
"1015",5,1018,0.877871166739624,"stream_1",1.24987116673947
"1016",5,1019,0.926572534323441,"stream_2",1.29857253432328
"1017",5,1020,0.921125265622777,"stream_2",1.73517801574235
"1018",5,1021,0.978854542630415,"stream_2",1.35085454263026
"1019",5,1022,1.0028257414674,"stream_2",1.73723113542292
"1020",5,1023,0.850859982029306,"stream_2",1.22285998202915
"1021",5,1024,0.756159152362216,"stream_2",1.12815915236206
"1022",5,1025,0.703492526302853,"stream_2",1.0754925263027
"1023",5,1026,0.681610718927459,"stream_2",1.0536107189273
"1024",5,1027,0.88329585112524,"stream_1",1.25529585112508
"1025",5,1028,0.885935136473108,"stream_2",1.25793513647295
"1026",5,1029,0.952863758400326,"stream_2",1.32486375840017
"1027",5,1030,0.980616803689827,"stream_1",1.35261680368967
"1028",5,1031,0.862385853731666,"stream_2",1.23438585373151
"1029",5,1032,0.971316171533999,"stream_1",1.34331617153384
"1030",5,1033,0.746571767825571,"stream_2",1.11857176782542
"1031",5,1034,0.875779379971846,"stream_2",1.24777937997169
"1032",5,1035,1.20261858169169,"stream_2",1.73709220765886
"1033",5,1036,0.89244694772924,"stream_2",1.26444694772908
"1034",5,1037,0.809361642660861,"stream_2",1.1813616426607
"1035",5,1038,0.951372851324322,"stream_1",1.32337285132417
"1036",5,1039,0.792267710382021,"stream_2",1.16426771038186
"1037",5,1040,0.879625557506643,"stream_2",1.25162555750649
"1038",5,1041,0.772669998652873,"stream_2",1.14466999865272
"1039",5,1042,0.761316246814658,"stream_2",1.1333162468145
"1040",5,1043,0.76179565026132,"stream_2",1.13379565026116
"1041",5,1044,0.66686384463128,"stream_2",1.03886384463112
"1042",5,1045,0.653704716220545,"stream_2",1.02570471622039
"1043",5,1046,0.704891385178144,"stream_2",1.07689138517799
"1044",5,1047,0.697344801604686,"stream_2",1.06934480160453
"1045",5,1048,0.670828760922177,"stream_2",1.04282876092202
"1046",5,1049,0.661782031234452,"stream_2",1.0337820312343
"1047",5,1050,0.91069233796361,"stream_2",1.28269233796345
"1048",5,1051,0.840037303815279,"stream_2",1.21203730381512
"1049",5,1052,0.806703879232828,"stream_1",1.17870387923267
"1050",5,1053,0.958536185893081,"stream_1",1.33053618589292
"1051",5,1054,0.947199543385523,"stream_1",1.31919954338537
"1052",5,1055,0.742248239963828,"stream_2",1.11424823996367
"1053",5,1056,0.79162782141475,"stream_2",1.16362782141459
"1054",5,1057,0.878778645640068,"stream_2",1.25077864563991
"1055",5,1058,1.04986510866775,"stream_2",1.42186510866759
"1056",5,1059,1.28737136212976,"stream_2",1.6593713621296
"1057",5,1060,1.0570205729432,"stream_2",1.42902057294305
"1058",5,1061,1.00609054394727,"stream_1",1.37809054394711
"1059",5,1062,0.939437382244705,"stream_1",1.7368865535027
"1060",5,1063,0.998457729344864,"stream_1",1.37045772934471
"1061",5,1064,0.797509324927432,"stream_2",1.16950932492728
"1062",5,1065,0.611883010503789,"stream_2",0.983883010503632
"1063",5,1066,0.704367497472504,"stream_2",1.07636749747235
"1064",5,1067,0.853882174198134,"stream_2",1.22588217419798
"1065",5,1068,0.897539711099398,"stream_2",1.26953971109924
"1066",5,1069,0.860727275215595,"stream_2",1.23272727521544
"1067",5,1070,0.70004670710432,"stream_2",1.73903959167546
"1068",5,1071,0.759213167888902,"stream_2",1.13121316788875
"1069",5,1072,0.765853299124046,"stream_2",1.13785329912389
"1070",5,1073,0.795398033522815,"stream_2",1.16739803352266
"1071",5,1074,0.858904789313328,"stream_2",1.23090478931317
"1072",5,1075,0.730404476896638,"stream_2",1.10240447689648
"1073",5,1076,0.759887275516576,"stream_2",1.13188727551642
"1074",5,1077,0.842946232217855,"stream_2",1.2149462322177
"1075",5,1078,0.64577214614701,"stream_2",1.01777214614685
"1076",5,1079,0.75712754047936,"stream_2",1.73544868535373
"1077",5,1080,0.736028313888255,"stream_2",1.1080283138881
"1078",5,1081,0.87521887829871,"stream_2",1.73726159003218
"1079",5,1082,0.826474395202695,"stream_2",1.19847439520254
"1080",5,1083,0.735040763322559,"stream_2",1.1070407633224
"1081",5,1084,0.830773285627856,"stream_2",1.2027732856277
"1082",5,1085,0.563546413850872,"stream_2",0.935546413850716
"1083",5,1086,1.03077451750005,"stream_2",1.40277451749989
"1084",5,1087,0.863381274591575,"stream_1",1.7368933972366
"1085",5,1088,1.15216008584821,"stream_1",1.52416008584805
"1086",5,1089,0.823107278925363,"stream_2",1.19510727892521
"1087",5,1090,0.727485625082863,"stream_2",1.16105149840132
"1088",5,1091,1.00788325961594,"stream_1",1.73620525995648
"1089",5,1092,1.25895207950225,"stream_1",1.73423323850147
"1090",5,1093,0.76545602046599,"stream_2",1.13745602046583
"1091",5,1094,0.894365930257209,"stream_1",1.26636593025705
"1092",5,1095,0.97919536049676,"stream_1",1.3511953604966
"1093",5,1096,0.96200048316723,"stream_1",1.33400048316707
"1094",5,1097,0.723134380105421,"stream_2",1.16151687219462
"1095",5,1098,0.884792917557661,"stream_2",1.2567929175575
"1096",5,1099,0.878030283516182,"stream_2",1.25003028351603
"1097",5,1100,0.694698330335541,"stream_2",1.16060083863067
"1098",5,1101,0.919600482072838,"stream_2",1.29160048207268
"1099",5,1102,0.83490587336064,"stream_2",1.20690587336048
"1100",5,1103,0.870414236057059,"stream_2",1.2424142360569
"1101",5,1104,0.845869532457527,"stream_2",1.21786953245737
"1102",5,1105,0.839790929454011,"stream_2",1.21179092945385
"1103",5,1106,0.746172778233358,"stream_2",1.1181727782332
"1104",5,1107,0.89959077766116,"stream_2",1.72964143633544
"1105",5,1108,1.16037016926703,"stream_2",1.53237016926687
"1106",5,1109,0.703087377351494,"stream_2",1.07508737735134
"1107",5,1110,0.717981734078876,"stream_2",1.08998173407872
"1108",5,1111,0.678006125140655,"stream_2",1.16526586873351
"1109",5,1112,0.678481080160509,"stream_2",1.05048108016035
"1110",5,1113,0.760150759210319,"stream_2",1.13215075921016
"1111",5,1114,0.875193214302726,"stream_2",1.24719321430257
"1112",5,1115,0.783231246291962,"stream_2",1.15523124629181
"1113",5,1116,0.674952109615788,"stream_2",1.04695210961563
"1114",5,1117,0.6742800551051,"stream_2",1.04628005510494
"1115",5,1118,0.81188869080097,"stream_2",1.18388869080081
"1116",5,1119,0.928735838093871,"stream_2",1.30073583809371
"1117",5,1120,1.10193393471536,"stream_1",1.47393393471521
"1118",5,1121,0.849266761154922,"stream_2",1.22126676115477
"1119",5,1122,0.745561290755631,"stream_2",1.11756129075548
"1120",5,1123,0.871322399330438,"stream_2",1.24332239933028
"1121",5,1124,0.813784404640046,"stream_1",1.18578440463989
"1122",5,1125,0.858799053648454,"stream_2",1.2307990536483
"1123",5,1126,0.918815505981456,"stream_1",1.2908155059813
"1124",5,1127,0.750122296126847,"stream_2",1.12212229612669
"1125",5,1128,0.826919237799757,"stream_2",1.1989192377996
"1126",5,1129,0.806570426453163,"stream_2",1.17857042645301
"1127",5,1130,0.745947619442177,"stream_2",1.16226523432033
"1128",5,1131,0.876453145413961,"stream_2",1.24845314541381
"1129",5,1132,0.992720286396889,"stream_1",1.36472028639673
"1130",5,1133,0.87205467868398,"stream_1",1.24405467868382
"1131",5,1134,0.895798323421786,"stream_2",1.26779832342163
"1132",5,1135,0.756788433545353,"stream_2",1.1287884335452
"1133",5,1136,0.869747998721778,"stream_1",1.24174799872162
"1134",5,1137,1.17058204437353,"stream_2",1.73627301290526
"1135",5,1138,1.1037666862162,"stream_1",1.47576668621605
"1136",5,1139,1.00120993627888,"stream_1",1.37320993627873
"1137",5,1140,1.27164514974402,"stream_2",1.64364514974386
"1138",5,1141,0.783629209322953,"stream_2",1.1556292093228
"1139",5,1142,0.725725759330544,"stream_2",1.09772575933039
"1140",5,1143,0.608226404352081,"stream_2",0.980226404351924
"1141",5,1144,0.620137920368052,"stream_2",0.992137920367895
"1142",5,1145,0.680119127479429,"stream_2",1.05211912747927
"1143",5,1146,0.99910514641806,"stream_2",1.3711051464179
"1144",5,1147,0.845378152480862,"stream_2",1.21737815248071
"1145",5,1148,0.783836916597011,"stream_2",1.15583691659685
"1146",5,1149,0.880085798502932,"stream_1",1.25208579850278
"1147",5,1150,0.798055796949029,"stream_2",1.17005579694887
"1148",5,1151,0.76536055040151,"stream_2",1.16224059688284
"1149",5,1152,0.9754217265222,"stream_1",1.34742172652204
"1150",5,1153,0.879955425403296,"stream_2",1.25195542540314
"1151",5,1154,0.801433178824936,"stream_2",1.17343317882478
"1152",5,1155,1.12724787382422,"stream_2",1.49924787382406
"1153",5,1156,0.78436627928977,"stream_2",1.15636627928961
"1154",5,1157,0.861975571982384,"stream_2",1.23397557198223
"1155",5,1158,0.733073190295272,"stream_2",1.10507319029512
"1156",5,1159,0.914483765639943,"stream_2",1.28648376563979
"1157",5,1160,0.796530329026155,"stream_2",1.168530329026
"1158",5,1161,0.965656062759535,"stream_1",1.33765606275938
"1159",5,1162,0.984299416024896,"stream_1",1.35629941602474
"1160",5,1163,0.790416822988391,"stream_2",1.16241682298823
"1161",5,1164,0.923126030751973,"stream_2",1.29512603075182
"1162",5,1165,0.81133708598054,"stream_2",1.18333708598038
"1163",5,1166,0.787032255193935,"stream_2",1.15903225519378
"1164",5,1167,0.724011746582164,"stream_2",1.09601174658201
"1165",5,1168,0.769711111005108,"stream_2",1.14171111100495
"1166",5,1169,0.894610935872606,"stream_2",1.73606291032411
"1167",5,1170,0.656128424005601,"stream_2",1.02812842400544
"1168",5,1171,0.699122118874129,"stream_2",1.07112211887397
"1169",5,1172,0.875792383063072,"stream_2",1.24779238306292
"1170",5,1173,0.71800192308865,"stream_2",1.09000192308849
"1171",5,1174,0.77077257387964,"stream_2",1.14277257387948
"1172",5,1175,0.765853983496982,"stream_2",1.13785398349683
"1173",5,1176,0.83340470068606,"stream_2",1.2054047006859
"1174",5,1177,0.742204782263343,"stream_2",1.73476978711187
"1175",5,1178,0.764680283412872,"stream_2",1.13668028341272
"1176",5,1179,0.767145053590411,"stream_2",1.13914505359025
"1177",5,1180,0.785984479784474,"stream_2",1.15798447978432
"1178",5,1181,0.833246610470724,"stream_2",1.7351287408701
"1179",5,1182,0.681314385320093,"stream_2",1.05331438531994
"1180",5,1183,0.706024707241795,"stream_2",1.07802470724164
"1181",5,1184,0.751791140241494,"stream_2",1.16513994405977
"1182",5,1185,0.783862922780372,"stream_2",1.73544184162074
"1183",5,1186,0.785722364838421,"stream_2",1.15772236483826
"1184",5,1187,0.753604387105497,"stream_2",1.12560438710534
"1185",5,1188,0.789003250089536,"stream_2",1.16100325008938
"1186",5,1189,0.832701507194997,"stream_1",1.20470150719484
"1187",5,1190,0.903209401098593,"stream_1",1.27520940109844
"1188",5,1191,0.985085076488303,"stream_1",1.35708507648815
"1189",5,1192,1.05848547383584,"stream_1",1.72971432208305
"1190",5,1193,0.964869033548439,"stream_1",1.33686903354828
"1191",5,1194,0.899323872101832,"stream_1",1.27132387210168
"1192",5,1195,0.861601904199688,"stream_1",1.23360190419953
"1193",5,1196,0.829517460756051,"stream_1",1.20151746075589
"1194",5,1197,0.841476882898405,"stream_1",1.21347688289825
"1195",5,1198,0.959807751347853,"stream_1",1.3318077513477
"1196",5,1199,0.881556174381785,"stream_1",1.73684651767053
"1197",5,1200,0.754766110659602,"stream_2",1.12676611065945
"1198",5,1201,0.689502568794978,"stream_2",1.73669253369371
"1199",5,1202,0.654306964661828,"stream_2",1.02630696466167
"1200",5,1203,0.716803585568869,"stream_2",1.08880358556871
"1201",5,1204,0.830001654815078,"stream_2",1.20200165481492
"1202",5,1205,0.980522702371218,"stream_2",1.35252270237106
"1203",5,1206,0.849669514799189,"stream_2",1.22166951479903
"1204",5,1207,1.03196464254188,"stream_2",1.40396464254172
"1205",5,1208,0.889811426432516,"stream_2",1.26181142643236
"1206",5,1209,0.726263334499436,"stream_2",1.16444188336845
"1207",5,1210,0.816859635735909,"stream_2",1.18885963573575
"1208",5,1211,0.890076963245065,"stream_1",1.26207696324491
"1209",5,1212,NA,NA,0.578359365750657
"1210",5,1213,0.596962989780423,"stream_1",0.968962989780266
"1211",5,1214,0.666605151551721,"stream_1",1.73681469431449
"1212",5,1215,0.673635033339906,"stream_2",1.15845430200534
"1213",5,1216,0.627750888146238,"stream_2",1.15957154129865
"1214",5,1217,0.628388039619949,"stream_2",1.00038803961979
"1215",5,1218,0.651661519951176,"stream_2",1.02366151995102
"1216",5,1219,0.703343332939312,"stream_2",1.07534333293916
"1217",5,1220,0.801842434014816,"stream_2",1.17384243401466
"1218",5,1221,0.978636569757782,"stream_1",1.35063656975763
"1219",5,1222,0.679476501018598,"stream_2",1.05147650101844
"1220",5,1223,0.909693837423674,"stream_2",1.28169383742352
"1221",5,1224,0.94090467844353,"stream_1",1.31290467844337
"1222",5,1225,0.954991132575287,"stream_1",1.32699113257513
"1223",5,1226,0.806784635274653,"stream_2",1.1787846352745
"1224",5,1227,0.889693714236728,"stream_2",1.26169371423657
"1225",5,1228,0.820176792767143,"stream_1",1.19217679276699
"1226",5,1229,0.847956186426472,"stream_1",1.21995618642632
"1227",5,1230,0.715763338263514,"stream_2",1.08776333826336
"1228",5,1231,0.942281979563177,"stream_2",1.73470032322984
"1229",5,1232,0.727317953642796,"stream_2",1.1607390820227
"1230",5,1233,0.750503492015469,"stream_2",1.16332909250104
"1231",5,1234,0.799114180145352,"stream_2",1.73633426430933
"1232",5,1235,0.918082542254069,"stream_1",1.29008254225391
"1233",5,1236,0.747627413528335,"stream_1",1.11962741352818
"1234",5,1237,0.808485987115546,"stream_2",1.18048598711539
"1235",5,1238,0.837008610099929,"stream_2",1.20900861009977
"1236",5,1239,0.911290822350111,"stream_2",1.28329082234995
"1237",5,1240,0.864375668889352,"stream_2",1.2363756688892
"1238",5,1241,0.73149913187217,"stream_2",1.10349913187201
"1239",5,1242,0.840222084586912,"stream_2",1.21222208458676
"1240",5,1243,0.890527623013895,"stream_1",1.26252762301374
"1241",5,1244,0.927532367773438,"stream_1",1.73751925655142
"1242",5,1245,1.15881458892045,"stream_1",1.53081458892029
"1243",5,1246,0.805793662841552,"stream_2",1.73573577992192
"1244",5,1247,0.808509940178283,"stream_2",1.73494532884433
"1245",5,1248,0.74376994383374,"stream_2",1.11576994383358
"1246",5,1249,0.808495910527654,"stream_2",1.73737622254612
"1247",5,1250,0.756072921335999,"stream_2",1.12807292133584
"1248",5,1251,1.07717502229434,"stream_2",1.73704772339897
"1249",5,1252,0.838860866239429,"stream_1",1.21086086623927
"1250",5,1253,0.766624245563889,"stream_2",1.13862424556373
"1251",5,1254,0.982369141337131,"stream_2",1.35436914133697
"1252",5,1255,0.937466729538301,"stream_1",1.30946672953814
"1253",5,1256,0.966997092098154,"stream_2",1.73656934651262
"1254",5,1257,0.85474927507812,"stream_2",1.22674927507796
"1255",5,1258,0.713136713818585,"stream_2",1.08513671381843
"1256",5,1259,0.619757408854184,"stream_2",1.16018918813461
"1257",5,1260,0.658630492522661,"stream_2",1.0306304925225
"1258",5,1261,0.740996179144986,"stream_2",1.11299617914483
"1259",5,1262,0.827002389145946,"stream_2",1.19900238914579
"1260",5,1263,0.675227569838626,"stream_2",1.15954074450201
"1261",5,1264,0.78678143240586,"stream_2",1.1587814324057
"1262",5,1265,0.739042977953886,"stream_2",1.737373142867
"1263",5,1266,0.975656808726399,"stream_1",1.34765680872624
"1264",5,1267,0.863842542146358,"stream_1",1.2358425421462
"1265",5,1268,1.14125186098181,"stream_1",1.73647011239336
"1266",5,1269,0.633289862857509,"stream_2",1.73592843098413
"1267",5,1270,0.923624254461629,"stream_2",1.73435129288464
"1268",5,1271,0.782698803920994,"stream_2",1.15469880392084
"1269",5,1272,0.766525695819382,"stream_2",1.13852569581923
"1270",5,1273,1.07087365580492,"stream_2",1.44287365580476
"1271",5,1274,0.921447263226128,"stream_2",1.29344726322597
"1272",5,1275,1.35778515471202,"stream_1",1.72978515471186
"1273",5,1276,0.992302818728149,"stream_1",1.73686875979911
"1274",5,1277,1.09696949132513,"stream_2",1.72899333488931
"1275",5,1278,1.06814369100312,"stream_1",1.44014369100296
"1276",5,1279,0.698957184925803,"stream_2",1.16193468204983
"1277",5,1280,0.699323666789041,"stream_2",1.07132366678889
"1278",5,1281,0.707030735885837,"stream_2",1.07903073588568
"1279",5,1282,0.89745929724495,"stream_2",1.26945929724479
"1280",5,1283,0.751866763483577,"stream_2",1.16454453935239
"1281",5,1284,0.709173508460026,"stream_2",1.08117350845987
"1282",5,1285,0.735004149355063,"stream_2",1.10700414935491
"1283",5,1286,0.85276288178602,"stream_2",1.22476288178586
"1284",5,1287,0.712672366583774,"stream_2",1.08467236658362
"1285",5,1288,0.656586269693889,"stream_2",1.02858626969373
"1286",5,1289,0.907574333541106,"stream_2",1.27957433354095
"1287",5,1290,0.832823325630216,"stream_2",1.20482332563006
"1288",5,1291,0.771975017638852,"stream_2",1.73620628651497
"1289",5,1292,0.874640582921984,"stream_2",1.24664058292183
"1290",5,1293,1.02142050423254,"stream_2",1.39342050423238
"1291",5,1294,0.809466693950071,"stream_2",1.18146669394991
"1292",5,1295,0.987913248849964,"stream_2",1.35991324884981
"1293",5,1296,0.858287484662014,"stream_2",1.23028748466186
"1294",5,1297,1.11711949225037,"stream_2",1.48911949225021
"1295",5,1298,0.812293839751419,"stream_1",1.18429383975126
"1296",5,1299,0.877254204275687,"stream_1",1.24925420427553
"1297",5,1300,0.983031956808645,"stream_1",1.35503195680849
"1298",5,1301,0.881211934648036,"stream_2",1.73733789764628
"1299",5,1302,0.716888447849215,"stream_2",1.08888844784906
"1300",5,1303,0.855468893525085,"stream_2",1.73527280143298
"1301",5,1304,0.931689250755426,"stream_2",1.30368925075527
"1302",5,1305,0.910677966123785,"stream_1",1.28267796612363
"1303",5,1306,0.883447097607586,"stream_1",1.25544709760743
"1304",5,1307,0.79633049204358,"stream_1",1.16833049204342
"1305",5,1308,0.960518130758373,"stream_1",1.33251813075822
"1306",5,1309,0.74425242695861,"stream_2",1.11625242695845
"1307",5,1310,0.808814144078951,"stream_2",1.18081414407879
"1308",5,1311,0.824323067962268,"stream_2",1.19632306796211
"1309",5,1312,0.933358779242099,"stream_2",1.30535877924194
"1310",5,1313,0.842379571186484,"stream_2",1.21437957118633
"1311",5,1314,0.810466905421436,"stream_2",1.18246690542128
"1312",5,1315,0.903958105408947,"stream_2",1.27595810540879
"1313",5,1316,1.00459621500568,"stream_2",1.37659621500552
"1314",5,1317,1.27307001480267,"stream_2",1.64507001480251
"1315",5,1318,1.12833739600183,"stream_2",1.50033739600167
"1316",5,1319,0.987211081919213,"stream_1",1.35921108191906
"1317",5,1320,0.966064291389102,"stream_1",1.33806429138895
"1318",5,1321,0.712431467206898,"stream_2",1.08443146720674
"1319",5,1322,0.86689176705886,"stream_2",1.2388917670587
"1320",5,1323,0.917937455129959,"stream_2",1.2899374551298
"1321",5,1324,0.873287919238919,"stream_2",1.24528791923876
"1322",5,1325,0.841268491251412,"stream_2",1.21326849125126
"1323",5,1326,0.756048968274172,"stream_2",1.73536656056694
"1324",5,1327,0.829782313195665,"stream_2",1.20178231319551
"1325",5,1328,1.01513556270265,"stream_2",1.3871355627025
"1326",5,1329,0.885909814663592,"stream_1",1.25790981466344
"1327",5,1330,1.1596187274622,"stream_1",1.53161872746205
"1328",5,1331,0.819350412095901,"stream_2",1.19135041209574
"1329",5,1332,0.88241266747491,"stream_2",1.73538435427054
"1330",5,1333,0.856723007464552,"stream_2",1.2287230074644
"1331",5,1334,0.908236806824334,"stream_2",1.28023680682418
"1332",5,1335,0.985246246384577,"stream_1",1.35724624638442
"1333",5,1336,0.888392036360074,"stream_2",1.26039203635992
"1334",5,1337,1.0599780918451,"stream_2",1.73490529301125
"1335",5,1338,0.905546535669146,"stream_2",1.73664428538086
"1336",5,1339,1.12295411619698,"stream_1",1.49495411619682
"1337",5,1340,1.0371374775782,"stream_1",1.40913747757804
"1338",5,1341,1.22140804863966,"stream_1",1.73735432260401
"1339",5,1342,1.00606932837718,"stream_1",1.37806932837702
"1340",5,1343,0.831070645794625,"stream_2",1.20307064579447
"1341",5,1344,0.813026461291429,"stream_2",1.18502646129127
"1342",5,1345,0.801864333957838,"stream_2",1.17386433395768
"1343",5,1346,0.840572825866275,"stream_2",1.21257282586612
"1344",5,1347,0.934782275553971,"stream_2",1.30678227555381
"1345",5,1348,0.874808938735896,"stream_2",1.24680893873574
"1346",5,1349,0.808922959422034,"stream_2",1.18092295942188
"1347",5,1350,0.918962304037905,"stream_2",1.29096230403775
"1348",5,1351,0.94792566337992,"stream_2",1.31992566337976
"1349",5,1352,0.921298069862587,"stream_2",1.29329806986243
"1350",5,1353,0.961072815257012,"stream_1",1.33307281525686
"1351",5,1354,0.789734160694479,"stream_2",1.16173416069432
"1352",5,1355,0.761084244291396,"stream_2",1.73810097379464
"1353",5,1356,0.821883961781623,"stream_2",1.19388396178147
"1354",5,1357,0.817209008268492,"stream_2",1.18920900826834
"1355",5,1358,1.03007543024933,"stream_2",1.40207543024917
"1356",5,1359,1.16082972588856,"stream_2",1.5328297258884
"1357",5,1360,0.823403270346262,"stream_2",1.19540327034611
"1358",5,1361,0.987252828686451,"stream_2",1.35925282868629
"1359",5,1362,0.831365268469654,"stream_2",1.2033652684695
"1360",6,1,0.717188545509373,"stream_1",1.08918854550939
"1361",6,2,0.701672777891247,"stream_2",1.07367277789126
"1362",6,3,0.709854117632233,"stream_2",1.08185411763225
"1363",6,4,0.582991852537191,"stream_2",0.954991852537205
"1364",6,5,0.722983475808462,"stream_2",1.09498347580848
"1365",6,6,0.810985660328981,"stream_2",1.182985660329
"1366",6,7,0.796031078757835,"stream_2",1.16803107875785
"1367",6,8,0.730260074145292,"stream_1",1.10226007414531
"1368",6,9,0.834939065461469,"stream_2",1.20693906546148
"1369",6,10,0.829245080212161,"stream_2",1.20124508021217
"1370",6,11,1.08466925131808,"stream_2",1.45666925131809
"1371",6,12,0.824225544777903,"stream_2",1.19622554477792
"1372",6,13,0.788845159873119,"stream_2",1.16084515987313
"1373",6,14,0.847178396253469,"stream_2",1.21917839625348
"1374",6,15,0.869970077833671,"stream_2",1.24197007783368
"1375",6,16,0.832807242856973,"stream_2",1.20480724285699
"1376",6,17,0.875899829659204,"stream_1",1.24789982965922
"1377",6,18,0.842060653261171,"stream_1",1.21406065326119
"1378",6,19,0.841640448100691,"stream_1",1.2136404481007
"1379",6,20,0.914970355005892,"stream_2",1.28697035500591
"1380",6,21,0.819618002027084,"stream_2",1.1916180020271
"1381",6,22,0.818698204411078,"stream_1",1.19069820441109
"1382",6,23,0.806230635145141,"stream_1",1.17823063514516
"1383",6,24,0.821662567042324,"stream_1",1.19366256704234
"1384",6,25,0.829593083997054,"stream_1",1.20159308399707
"1385",6,26,0.740114706427732,"stream_1",1.11211470642775
"1386",6,27,0.872342457626758,"stream_1",1.24434245762677
"1387",6,28,0.917557285803298,"stream_1",1.28955728580331
"1388",6,29,0.862302702383488,"stream_2",1.2343027023835
"1389",6,30,0.824596132880572,"stream_2",1.19659613288059
"1390",6,31,0.88650008657288,"stream_2",1.25850008657289
"1391",6,32,0.950832880847258,"stream_2",1.32283288084727
"1392",6,33,0.865422417741968,"stream_1",1.23742241774198
"1393",6,34,0.894060699797876,"stream_1",1.26606069979789
"1394",6,35,0.82585435305856,"stream_2",1.19785435305857
"1395",6,36,0.76430866875063,"stream_1",1.13630866875064
"1396",6,37,0.895477694565955,"stream_1",1.26747769456597
"1397",6,38,0.890891709569871,"stream_1",1.26289170956989
"1398",6,39,0.823456993644243,"stream_2",1.19545699364426
"1399",6,40,0.890703849120939,"stream_1",1.26270384912095
"1400",6,41,0.771012788881649,"stream_1",1.14301278888161
"1401",6,42,0.884500005816676,"stream_1",1.25650000581663
"1402",6,43,0.916218993959205,"stream_1",1.28821899395916
"1403",6,44,0.773950803145794,"stream_2",1.14595080314575
"1404",6,45,0.876678988578874,"stream_2",1.24867898857883
"1405",6,46,0.725707281252994,"stream_2",1.09770728125295
"1406",6,47,0.759662458910839,"stream_1",1.1316624589108
"1407",6,48,0.78736965119549,"stream_2",1.15936965119545
"1408",6,49,0.899688300845241,"stream_2",1.2716883008452
"1409",6,50,0.767294931326774,"stream_1",1.13929493132673
"1410",6,51,0.906708259222228,"stream_2",1.27870825922219
"1411",6,52,1.00507904031781,"stream_2",1.37707904031777
"1412",6,53,0.887429807601961,"stream_1",1.25942980760192
"1413",6,54,0.912584629933349,"stream_1",1.28458462993331
"1414",6,55,0.908240913063651,"stream_2",1.28024091306361
"1415",6,56,0.818951422502664,"stream_2",1.19095142250262
"1416",6,57,0.685344317067006,"stream_1",1.05734431706696
"1417",6,58,0.822516322642855,"stream_1",1.19451632264281
"1418",6,59,0.901413947938067,"stream_1",1.27341394793802
"1419",6,60,0.823044658774393,"stream_1",1.19504465877435
"1420",6,61,0.892235134216548,"stream_1",1.26423513421651
"1421",6,62,0.730457515820831,"stream_2",1.10245751582079
"1422",6,63,0.822273712335459,"stream_2",1.19427371233542
"1423",6,64,0.737150001610075,"stream_1",1.10915000161003
"1424",6,65,0.453942330604491,"stream_2",0.825942330604448
"1425",6,66,-0.0673293580390464,"stream_1",0.578797022430081
"1426",6,67,0.798880124502261,"stream_1",1.17088012450222
"1427",6,68,0.882689154257037,"stream_1",1.25468915425699
"1428",6,69,0.869499913427148,"stream_1",1.24149991342711
"1429",6,70,0.911788361686718,"stream_1",1.28378836168667
"1430",6,71,0.883294824564814,"stream_2",1.25529482456477
"1431",6,72,0.858408276536807,"stream_2",1.23040827653676
"1432",6,73,0.787975663687916,"stream_2",1.15997566368787
"1433",6,74,0.922953568698517,"stream_2",1.29495356869847
"1434",6,75,0.882877356896074,"stream_2",1.25487735689603
"1435",6,76,0.786188423005456,"stream_2",1.15818842300541
"1436",6,77,0.736291113208949,"stream_2",1.10829111320891
"1437",6,78,0.833132662327785,"stream_2",1.20513266232774
"1438",6,79,0.817239462875818,"stream_2",1.18923946287578
"1439",6,80,0.981266273881715,"stream_2",1.35326627388167
"1440",6,81,0.837296046854476,"stream_2",1.20929604685443
"1441",6,82,0.941469286356892,"stream_2",1.31346928635685
"1442",6,83,0.850494526724447,"stream_1",1.2224945267244
"1443",6,84,0.816030859755642,"stream_2",1.1880308597556
"1444",6,85,0.799945693617133,"stream_2",1.73059819010814
"1445",6,86,0.868824437052695,"stream_2",1.24082443705265
"1446",6,87,0.835623780876062,"stream_2",1.20762378087602
"1447",6,88,0.909898465020319,"stream_2",1.28189846502028
"1448",6,89,0.760730423332802,"stream_2",1.13273042333276
"1449",6,90,0.669788513617618,"stream_2",1.04178851361758
"1450",6,91,0.790802809489264,"stream_1",1.16280280948922
"1451",6,92,0.898275754503061,"stream_2",1.27027575450302
"1452",6,93,0.888963145818138,"stream_2",1.2609631458181
"1453",6,94,0.80981196024311,"stream_1",1.18181196024307
"1454",6,95,0.815810833764203,"stream_2",1.18781083376416
"1455",6,96,0.816266626335505,"stream_1",1.18826662633546
"1456",6,97,0.857711926778734,"stream_1",1.22971192677869
"1457",6,98,0.882491712581555,"stream_1",1.25449171258151
"1458",6,99,0.937966321994622,"stream_2",1.30996632199458
"1459",6,100,0.841510075000201,"stream_2",1.21351007500016
"1460",6,101,0.967501475165932,"stream_1",1.33950147516589
"1461",6,102,0.802017975747162,"stream_2",1.17401797574712
"1462",6,103,0.840819884600364,"stream_2",1.21281988460032
"1463",6,104,0.856433517588243,"stream_2",1.2284335175882
"1464",6,105,0.703778252125062,"stream_1",1.07577825212502
"1465",6,106,0.772604641007433,"stream_2",1.14460464100739
"1466",6,107,0.809807169630744,"stream_1",1.1818071696307
"1467",6,108,0.624681816406678,"stream_2",0.996681816406635
"1468",6,109,0.768338942685091,"stream_2",1.14033894268505
"1469",6,110,0.719303943154387,"stream_2",1.09130394315434
"1470",6,111,0.724008666902023,"stream_1",1.09600866690198
"1471",6,112,0.764278556326985,"stream_2",1.13627855632694
"1472",6,113,0.716937722719535,"stream_2",1.08893772271949
"1473",6,114,0.784090134692974,"stream_2",1.15609013469293
"1474",6,115,1.20520448592958,"stream_1",1.57720448592954
"1475",6,116,0.877292529177225,"stream_1",1.24929252917718
"1476",6,117,0.652473528785208,"stream_1",1.02447352878517
"1477",6,118,0.539932115650458,"stream_1",0.911932115650416
"1478",6,119,0.616143233842536,"stream_2",0.988143233842493
"1479",6,120,0.858687842999075,"stream_2",1.23068784299903
"1480",6,121,1.01902896199078,"stream_1",1.39102896199074
"1481",6,122,0.902635211959364,"stream_1",1.27463521195932
"1482",6,123,0.720850284459971,"stream_1",1.09285028445993
"1483",6,124,0.618183350430058,"stream_1",0.990183350430016
"1484",6,125,0.712666891596541,"stream_1",1.0846668915965
"1485",6,126,0.789786515245737,"stream_1",1.16178651524569
"1486",6,127,0.861897553433096,"stream_2",1.23389755343305
"1487",6,128,0.832255295851951,"stream_2",1.20425529585191
"1488",6,129,0.901169284508228,"stream_2",1.27316928450819
"1489",6,130,0.735959876566426,"stream_2",1.10795987656638
"1490",6,131,0.658755048448597,"stream_2",1.03075504844855
"1491",6,132,0.793297349902218,"stream_2",1.16529734990218
"1492",6,133,0.805841911154289,"stream_1",1.17784191115425
"1493",6,134,0.881169161322191,"stream_1",1.25316916132215
"1494",6,135,0.907729344076301,"stream_2",1.27972934407626
"1495",6,136,0.849052894521606,"stream_1",1.22105289452156
"1496",6,137,0.913362762293559,"stream_2",1.28536276229352
"1497",6,138,0.981655682249198,"stream_2",1.35365568224915
"1498",6,139,0.876504131219349,"stream_2",1.24850413121931
"1499",6,140,0.782405549992632,"stream_2",1.15440554999259
"1500",6,141,0.882040710624437,"stream_2",1.25404071062439
"1501",6,142,0.888571684331851,"stream_2",1.26057168433181
"1502",6,143,0.891364611470067,"stream_2",1.26336461147002
"1503",6,144,0.626037217585122,"stream_2",0.998037217585079
"1504",6,145,0.91398588411846,"stream_2",1.28598588411842
"1505",6,146,0.88274664160906,"stream_2",1.25474664160902
"1506",6,147,0.904232881258736,"stream_2",1.27623288125869
"1507",6,148,0.863752889253533,"stream_2",1.23575288925349
"1508",6,149,0.949262928666371,"stream_2",1.32126292866633
"1509",6,150,0.899084341471621,"stream_2",1.27108434147158
"1510",6,151,0.870351958095284,"stream_2",1.24235195809524
"1511",6,152,0.843205267484677,"stream_2",1.21520526748463
"1512",6,153,0.770622353954764,"stream_2",1.14262235395472
"1513",6,154,0.863271432686247,"stream_2",1.2352714326862
"1514",6,155,0.9064314302517,"stream_1",1.27843143025166
"1515",6,156,0.934667643039006,"stream_1",1.30666764303896
"1516",6,157,0.92225790331338,"stream_2",1.29425790331334
"1517",6,158,0.87174739510499,"stream_2",1.24374739510495
"1518",6,159,0.914616876233936,"stream_2",1.28661687623389
"1519",6,160,NA,NA,0.581748724158388
"1520",6,161,0.875408449682595,"stream_1",1.24740844968255
"1521",6,162,0.945756200251139,"stream_2",1.3177562002511
"1522",6,163,0.93399387759689,"stream_2",1.30599387759685
"1523",6,164,0.870893639502697,"stream_2",1.24289363950265
"1524",6,165,0.884314882859485,"stream_1",1.25631488285944
"1525",6,166,0.870900141049219,"stream_2",1.24290014104918
"1526",6,167,0.961894405319413,"stream_2",1.33389440531937
"1527",6,168,0.905403501664637,"stream_1",1.27740350166459
"1528",6,169,0.881248890801885,"stream_2",1.25324889080184
"1529",6,170,0.831211626678282,"stream_2",1.72958565991576
"1530",6,171,0.897384016188312,"stream_2",1.26938401618827
"1531",6,172,0.885162479101723,"stream_2",1.25716247910168
"1532",6,173,0.93511214345142,"stream_2",1.30711214345138
"1533",6,174,0.928536685485028,"stream_2",1.30053668548499
"1534",6,175,0.874342538383075,"stream_2",1.24634253838303
"1535",6,176,0.877424271021823,"stream_1",1.24942427102178
"1536",6,177,0.857408065066352,"stream_1",1.22940806506631
"1537",6,178,0.883927185424341,"stream_2",1.2559271854243
"1538",6,179,0.916621405414276,"stream_1",1.28862140541423
"1539",6,180,0.915444283463671,"stream_2",1.28744428346363
"1540",6,181,0.882488632903346,"stream_2",1.2544886329033
"1541",6,182,0.967456306534018,"stream_2",1.33945630653398
"1542",6,183,0.939250890539711,"stream_2",1.31125089053967
"1543",6,184,0.927815698290374,"stream_1",1.29981569829033
"1544",6,185,0.930058047167563,"stream_2",1.30205804716752
"1545",6,186,0.901195290692499,"stream_2",1.27319529069246
"1546",6,187,0.93099426974311,"stream_1",1.30299426974307
"1547",6,188,0.867523443548066,"stream_1",1.23952344354802
"1548",6,189,0.880934079117083,"stream_2",1.25293407911704
"1549",6,190,0.890306228274653,"stream_2",1.26230622827461
"1550",6,191,0.856526250160982,"stream_2",1.22852625016094
"1551",6,192,0.882601896673236,"stream_1",1.25460189667319
"1552",6,193,0.935148415231538,"stream_2",1.3071484152315
"1553",6,194,0.91989407818744,"stream_1",1.2918940781874
"1554",6,195,0.974423568169527,"stream_1",1.34642356816948
"1555",6,196,0.860892551350275,"stream_2",1.23289255135023
"1556",6,197,0.682676630230503,"stream_2",1.05467663023046
"1557",6,198,0.787732369005766,"stream_2",1.15973236900572
"1558",6,199,0.74746453269961,"stream_2",1.73515919547754
"1559",6,200,0.63704365000865,"stream_2",1.00904365000861
"1560",6,201,0.722318265031731,"stream_2",1.09431826503169
"1561",6,202,0.85836208134549,"stream_2",1.23036208134545
"1562",6,203,0.872511497812752,"stream_2",1.24451149781271
"1563",6,204,0.903566301737897,"stream_2",1.27556630173785
"1564",6,205,0.983068570774208,"stream_2",1.35506857077416
"1565",6,206,0.898599463041478,"stream_2",1.27059946304144
"1566",6,207,0.908426378207309,"stream_2",1.28042637820727
"1567",6,208,0.717569399209765,"stream_2",1.08956939920972
"1568",6,209,0.769971515016891,"stream_2",1.14197151501685
"1569",6,210,0.828165823633185,"stream_2",1.20016582363314
"1570",6,211,1.11187479802481,"stream_1",1.48387479802477
"1571",6,212,0.948072803624541,"stream_1",1.3200728036245
"1572",6,213,0.909372182007587,"stream_1",1.28137218200754
"1573",6,214,0.840426712181738,"stream_2",1.2124267121817
"1574",6,215,0.992427716842371,"stream_2",1.36442771684233
"1575",6,216,0.884134892699308,"stream_2",1.25613489269927
"1576",6,217,0.905012382366635,"stream_2",1.73534123875834
"1577",6,218,0.915865515185374,"stream_2",1.28786551518533
"1578",6,219,0.956873843323933,"stream_2",1.32887384332389
"1579",6,220,0.942996123026546,"stream_2",1.3149961230265
"1580",6,221,0.901308896647038,"stream_1",1.27330889664699
"1581",6,222,0.947439416203792,"stream_2",1.31943941620375
"1582",6,223,0.93356819744929,"stream_2",1.30556819744925
"1583",6,224,0.618663780436123,"stream_2",1.73485601813809
"1584",6,225,0.849303375123213,"stream_2",1.22130337512317
"1585",6,226,0.883973380619295,"stream_2",1.25597338061925
"1586",6,227,0.953469428706171,"stream_2",1.32546942870613
"1587",6,228,0.880212065363025,"stream_1",1.25221206536298
"1588",6,229,0.849873800208456,"stream_2",1.22187380020841
"1589",6,230,0.977549785072711,"stream_2",1.34954978507267
"1590",6,231,0.901298973235839,"stream_2",1.2732989732358
"1591",6,232,0.843268914193118,"stream_2",1.21526891419308
"1592",6,233,0.905897619134862,"stream_2",1.27789761913482
"1593",6,234,0.862933352314371,"stream_2",1.23493335231433
"1594",6,235,0.891504565797163,"stream_1",1.26350456579712
"1595",6,236,0.911025969909474,"stream_2",1.28302596990943
"1596",6,237,0.950951619604325,"stream_2",1.32295161960428
"1597",6,238,0.910647511516231,"stream_2",1.28264751151619
"1598",6,239,0.957514416664139,"stream_2",1.3295144166641
"1599",6,240,1.00106176947281,"stream_2",1.37306176947277
"1600",6,241,0.893204548892186,"stream_1",1.26520454889214
"1601",6,242,0.844445009584319,"stream_2",1.21644500958428
"1602",6,243,0.887750436458532,"stream_2",1.25975043645849
"1603",6,244,0.922882393884151,"stream_2",1.73456242202519
"1604",6,245,0.940283267552672,"stream_2",1.31228326755263
"1605",6,246,0.872656584935044,"stream_2",1.244656584935
"1606",6,247,0.941990778755439,"stream_2",1.3139907787554
"1607",6,248,0.894438816008346,"stream_2",1.2664388160083
"1608",6,249,0.856251132124612,"stream_1",1.22825113212457
"1609",6,250,0.911893070789461,"stream_1",1.28389307078942
"1610",6,251,0.96964698523459,"stream_2",1.34164698523455
"1611",6,252,0.917121340058088,"stream_2",1.28912134005805
"1612",6,253,0.832723749324373,"stream_2",1.73482316822265
"1613",6,254,0.884326175016554,"stream_1",1.25632617501651
"1614",6,255,0.938210643234356,"stream_2",1.72951003667549
"1615",6,256,1.0293958476334,"stream_2",1.40139584763347
"1616",6,257,0.910238256326238,"stream_2",1.28223825632631
"1617",6,258,0.680851064647186,"stream_2",1.05285106464726
"1618",6,259,0.948498141583741,"stream_2",1.32049814158381
"1619",6,260,0.730320641175467,"stream_2",1.10232064117554
"1620",6,261,0.848931076086274,"stream_2",1.22093107608634
"1621",6,262,1.12753907463161,"stream_2",1.73538161677607
"1622",6,263,0.862851911898588,"stream_2",1.23485191189866
"1623",6,264,1.01402311402239,"stream_2",1.38602311402246
"1624",6,265,0.866548553885195,"stream_2",1.23854855388527
"1625",6,266,0.880308561986794,"stream_2",1.25230856198687
"1626",6,267,0.799233261085874,"stream_2",1.17123326108594
"1627",6,268,0.807791348289584,"stream_1",1.17979134828965
"1628",6,269,0.84271251875839,"stream_1",1.21471251875846
"1629",6,270,0.883561730124029,"stream_1",1.2555617301241
"1630",6,271,0.969939896974438,"stream_2",1.34193989697451
"1631",6,272,0.923800480567706,"stream_2",1.29580048056778
"1632",6,273,0.865083310805176,"stream_2",1.23708331080525
"1633",6,274,0.970054871676666,"stream_2",1.34205487167674
"1634",6,275,0.922627122670065,"stream_2",1.29462712267014
"1635",6,276,0.907762536176278,"stream_2",1.27976253617635
"1636",6,277,0.904747872114285,"stream_2",1.27674787211436
"1637",6,278,0.934814783281809,"stream_2",1.30681478328188
"1638",6,279,0.832341526876235,"stream_2",1.20434152687631
"1639",6,280,0.670349357476198,"stream_2",1.04234935747627
"1640",6,281,0.742243449350326,"stream_2",1.1142434493504
"1641",6,282,0.711702951906091,"stream_2",1.08370295190616
"1642",6,283,0.858240605096626,"stream_2",1.2302406050967
"1643",6,284,0.927508414711383,"stream_2",1.29950841471145
"1644",6,285,0.973488714343375,"stream_2",1.34548871434345
"1645",6,286,0.883514850557958,"stream_2",1.25551485055803
"1646",6,287,0.811279598630108,"stream_2",1.18327959863018
"1647",6,288,0.663126824624896,"stream_2",1.03512682462497
"1648",6,289,0.794889886399005,"stream_2",1.16688988639908
"1649",6,290,0.722419894456152,"stream_2",1.09441989445622
"1650",6,291,0.809310656855132,"stream_2",1.1813106568552
"1651",6,292,0.813384388489112,"stream_2",1.73476636524356
"1652",6,293,0.680300144196053,"stream_2",1.05230014419612
"1653",6,294,0.823651013453173,"stream_2",1.19565101345324
"1654",6,295,1.03422444293687,"stream_1",1.7356430473501
"1655",6,296,0.919426309084201,"stream_2",1.73399884067112
"1656",6,297,1.00871751057934,"stream_2",1.38071751057942
"1657",6,298,0.948849225048662,"stream_1",1.32084922504873
"1658",6,299,0.875801622101108,"stream_1",1.24780162210118
"1659",6,300,1.08548741950767,"stream_2",1.45748741950774
"1660",6,301,0.905794278776057,"stream_2",1.27779427877613
"1661",6,302,0.930528211575847,"stream_2",1.30252821157592
"1662",6,303,0.799437204307878,"stream_2",1.17143720430795
"1663",6,304,0.704340464729512,"stream_2",1.73524200463908
"1664",6,305,0.958872897520678,"stream_2",1.33087289752075
"1665",6,306,0.962288604297328,"stream_2",1.3342886042974
"1666",6,307,0.883767384278372,"stream_1",1.25576738427844
"1667",6,308,0.672868877512201,"stream_2",1.1624506994649
"1668",6,309,0.794016626162602,"stream_2",1.16601662616267
"1669",6,310,0.784589727146567,"stream_2",1.73539496205376
"1670",6,311,0.699901962164631,"stream_2",1.0719019621647
"1671",6,312,1.09019624949656,"stream_2",1.46219624949663
"1672",6,313,1.0769546541153,"stream_2",1.44895465411537
"1673",6,314,0.840302156254666,"stream_1",1.21230215625474
"1674",6,315,0.997681992291518,"stream_1",1.36968199229159
"1675",6,316,0.832641282349186,"stream_2",1.20464128234926
"1676",6,317,0.906574464255073,"stream_2",1.27857446425514
"1677",6,318,0.657954331775954,"stream_2",1.02995433177603
"1678",6,319,0.801985125831607,"stream_2",1.17398512583168
"1679",6,320,NA,NA,1.16000098549739
"1680",6,321,-0.152999540786141,"stream_2",1.73526322020916
"1681",6,322,1.09458616156485,"stream_1",1.46658616156492
"1682",6,323,0.973916105423314,"stream_1",1.34591610542338
"1683",6,324,0.891769076047467,"stream_2",1.26376907604754
"1684",6,325,0.999229360158324,"stream_1",1.3712293601584
"1685",6,326,0.943496399854894,"stream_2",1.31549639985496
"1686",6,327,0.45237716903398,"stream_2",0.824377169034051
"1687",6,328,0.503384874394442,"stream_2",0.875384874394513
"1688",6,329,1.06463217197347,"stream_2",1.43663217197354
"1689",6,330,0.98316301428099,"stream_2",1.35516301428106
"1690",6,331,0.915550703502277,"stream_2",1.28755070350235
"1691",6,332,0.879635480917614,"stream_2",1.25163548091768
"1692",6,333,0.84384857831833,"stream_2",1.2158485783184
"1693",6,334,0.994524636408869,"stream_1",1.36652463640894
"1694",6,335,1.20156122505546,"stream_1",1.57356122505553
"1695",6,336,0.911773989849507,"stream_1",1.28377398984958
"1696",6,337,0.869772293969845,"stream_2",1.24177229396992
"1697",6,338,0.914626799643202,"stream_2",1.28662679964327
"1698",6,339,0.892231027975185,"stream_2",1.26423102797526
"1699",6,340,0.969324645443749,"stream_2",1.73144373322975
"1700",6,341,0.899316343994769,"stream_1",1.27131634399484
"1701",6,342,0.865519256550442,"stream_1",1.23751925655051
"1702",6,343,0.79932222960565,"stream_1",1.17132222960572
"1703",6,344,0.832859255223639,"stream_1",1.20485925522371
"1704",6,345,0.843797934699296,"stream_2",1.21579793469937
"1705",6,346,0.859837247832957,"stream_2",1.23183724783303
"1706",6,347,0.922514201084823,"stream_2",1.29451420108489
"1707",6,348,0.900726495029858,"stream_1",1.27272649502993
"1708",6,349,0.886748514055625,"stream_1",1.2587485140557
"1709",6,350,0.473385716171151,"stream_2",0.845385716171222
"1710",6,351,0.933979505757861,"stream_2",1.30597950575793
"1711",6,352,0.922435498166351,"stream_1",1.29443549816642
"1712",6,353,0.970876461734633,"stream_1",1.3428764617347
"1713",6,354,NA,NA,0.578280662828547
"1714",6,355,0.846039257017082,"stream_1",1.21803925701715
"1715",6,356,0.912838874587806,"stream_1",1.28483887458788
"1716",6,357,NA,NA,0.578532169989558
"1717",6,358,0.777469165906268,"stream_2",1.14946916590634
"1718",6,359,0.858960907916526,"stream_1",1.2309609079166
"1719",6,360,0.885147080703291,"stream_2",1.73828267488534
"1720",6,361,0.89850467734982,"stream_2",1.27050467734989
"1721",6,362,0.930646608142752,"stream_2",1.30264660814282
"1722",6,363,0.934456171712782,"stream_1",1.30645617171285
"1723",6,364,0.969659303950948,"stream_1",1.34165930395102
"1724",6,365,NA,NA,0.578413089047899
"1725",6,366,1.11041229243824,"stream_1",1.48241229243831
"1726",6,367,0.941842954137655,"stream_1",1.31384295413773
"1727",6,368,0.864863284813737,"stream_2",1.23686328481381
"1728",6,369,0.880746560852685,"stream_1",1.25274656085276
"1729",6,370,0.904421768268776,"stream_2",1.27642176826885
